File: data/cv/0622/1000 rpm CV.txt
June 22, 2016   17:13:43
Cyclic Voltammetry
File: c:\users\potentio2\desktop\suda\20160622\1000 rpm cv.txt
Data Source:  Experiment
Instrument Model:  CHI7082E
Header:
Note:

Init E (V) = 0
High E (V) = 0.9
Low E (V) = -0.6
Init P/N = P
Scan Rate (V/s) = 0.01
Segment = 6
Sample Interval (V) = 0.001
Quiet Time (sec) = 2
Sensitivity (A/V) = 0.001
Sens 2 (A/V) = 0.001

Segment 1:

Segment 2:

Segment 3:
Ep = 0.284V
ip = 5.639e-6A
Ah = 3.400e-5C

Segment 4:

Segment 5:
Ep = 0.127V
ip = 4.396e-6A
Ah = 3.704e-5C

Segment 6:

Current 2:

Segment 1:

Segment 2:
Ep = 0.554V
ip = -2.245e-8A
Ah = -9.394e-8C

Ep = 0.367V
ip = -2.802e-8A
Ah = -3.973e-8C

Segment 3:
Segment 4:

Segment 5:
Segment 6:
Ep = 0.311V
ip = -2.023e-8A
Ah = -2.360e-8C

Ep = -0.076V
ip = -4.130e-8A
Ah = -1.619e-7C

Potential/V	i1/A	i2/A

0.000	-4.818e-5	-7.578e-6
0.006	-2.074e-5	-7.596e-6
0.012	-7.185e-6	-7.513e-6
0.018	1.254e-6	-7.536e-6
0.024	6.835e-6	-7.543e-6
0.030	1.087e-5	-7.545e-6
0.036	1.389e-5	-7.554e-6
0.042	1.620e-5	-7.550e-6
0.048	1.799e-5	-7.563e-6
0.054	1.954e-5	-7.551e-6
0.060	2.085e-5	-7.556e-6
0.066	2.190e-5	-7.559e-6
0.072	2.278e-5	-7.578e-6
0.078	2.358e-5	-7.565e-6
0.084	2.426e-5	-7.584e-6
0.090	2.480e-5	-7.573e-6
0.096	2.527e-5	-7.577e-6
0.102	2.574e-5	-7.572e-6
0.108	2.614e-5	-7.573e-6
0.114	2.644e-5	-7.586e-6
0.120	2.672e-5	-7.577e-6
0.126	2.697e-5	-7.585e-6
0.132	2.717e-5	-7.584e-6
0.138	2.732e-5	-7.583e-6
0.144	2.745e-5	-7.595e-6
0.150	2.757e-5	-7.601e-6
0.156	2.774e-5	-7.587e-6
0.162	2.786e-5	-7.591e-6
0.168	2.792e-5	-7.592e-6
0.174	2.795e-5	-7.596e-6
0.180	2.798e-5	-7.596e-6
0.186	2.802e-5	-7.603e-6
0.192	2.807e-5	-7.608e-6
0.198	2.816e-5	-7.597e-6
0.204	2.820e-5	-7.612e-6
0.210	2.826e-5	-7.601e-6
0.216	2.826e-5	-7.608e-6
0.222	2.831e-5	-7.603e-6
0.228	2.839e-5	-7.601e-6
0.234	2.830e-5	-7.607e-6
0.240	2.829e-5	-7.611e-6
0.246	2.836e-5	-7.613e-6
0.252	2.832e-5	-7.612e-6
0.258	2.827e-5	-7.605e-6
0.264	2.824e-5	-7.603e-6
0.270	2.827e-5	-7.610e-6
0.276	2.829e-5	-7.622e-6
0.282	2.823e-5	-7.611e-6
0.288	2.822e-5	-7.611e-6
0.294	2.823e-5	-7.621e-6
0.300	2.828e-5	-7.624e-6
0.306	2.831e-5	-7.623e-6
0.312	2.830e-5	-7.624e-6
0.318	2.829e-5	-7.616e-6
0.324	2.830e-5	-7.623e-6
0.330	2.821e-5	-7.627e-6
0.336	2.819e-5	-7.630e-6
0.342	2.820e-5	-7.621e-6
0.348	2.822e-5	-7.628e-6
0.354	2.818e-5	-7.624e-6
0.360	2.815e-5	-7.633e-6
0.366	2.813e-5	-7.623e-6
0.372	2.818e-5	-7.626e-6
0.378	2.815e-5	-7.623e-6
0.384	2.812e-5	-7.631e-6
0.390	2.814e-5	-7.631e-6
0.396	2.819e-5	-7.634e-6
0.402	2.815e-5	-7.631e-6
0.408	2.813e-5	-7.635e-6
0.414	2.827e-5	-7.628e-6
0.420	2.832e-5	-7.632e-6
0.426	2.833e-5	-7.628e-6
0.432	2.832e-5	-7.626e-6
0.438	2.833e-5	-7.628e-6
0.444	2.840e-5	-7.626e-6
0.450	2.841e-5	-7.633e-6
0.456	2.843e-5	-7.631e-6
0.462	2.851e-5	-7.629e-6
0.468	2.857e-5	-7.619e-6
0.474	2.860e-5	-7.631e-6
0.480	2.863e-5	-7.633e-6
0.486	2.870e-5	-7.642e-6
0.492	2.875e-5	-7.644e-6
0.498	2.877e-5	-7.632e-6
0.504	2.884e-5	-7.641e-6
0.510	2.896e-5	-7.651e-6
0.516	2.911e-5	-7.644e-6
0.522	2.921e-5	-7.640e-6
0.528	2.932e-5	-7.646e-6
0.534	2.948e-5	-7.648e-6
0.540	2.966e-5	-7.656e-6
0.546	2.980e-5	-7.641e-6
0.552	3.001e-5	-7.648e-6
0.558	3.030e-5	-7.644e-6
0.564	3.065e-5	-7.631e-6
0.570	3.092e-5	-7.623e-6
0.576	3.120e-5	-7.628e-6
0.582	3.154e-5	-7.618e-6
0.588	3.192e-5	-7.624e-6
0.594	3.231e-5	-7.622e-6
0.600	3.271e-5	-7.617e-6
0.606	3.322e-5	-7.633e-6
0.612	3.378e-5	-7.626e-6
0.618	3.437e-5	-7.623e-6
0.624	3.486e-5	-7.624e-6
0.630	3.542e-5	-7.628e-6
0.636	3.604e-5	-7.628e-6
0.642	3.662e-5	-7.629e-6
0.648	3.727e-5	-7.640e-6
0.654	3.797e-5	-7.639e-6
0.660	3.871e-5	-7.640e-6
0.666	3.944e-5	-7.653e-6
0.672	4.016e-5	-7.644e-6
0.678	4.094e-5	-7.640e-6
0.684	4.176e-5	-7.637e-6
0.690	4.259e-5	-7.635e-6
0.696	4.337e-5	-7.641e-6
0.702	4.422e-5	-7.657e-6
0.708	4.516e-5	-7.658e-6
0.714	4.606e-5	-7.641e-6
0.720	4.697e-5	-7.642e-6
0.726	4.795e-5	-7.652e-6
0.732	4.899e-5	-7.653e-6
0.738	4.995e-5	-7.649e-6
0.744	5.099e-5	-7.641e-6
0.750	5.204e-5	-7.642e-6
0.756	5.311e-5	-7.651e-6
0.762	5.409e-5	-7.644e-6
0.768	5.525e-5	-7.650e-6
0.774	5.641e-5	-7.642e-6
0.780	5.759e-5	-7.649e-6
0.786	5.885e-5	-7.644e-6
0.792	6.010e-5	-7.658e-6
0.798	6.144e-5	-7.648e-6
0.804	6.284e-5	-7.657e-6
0.810	6.427e-5	-7.670e-6
0.816	6.570e-5	-7.665e-6
0.822	6.733e-5	-7.660e-6
0.828	6.877e-5	-7.670e-6
0.834	7.027e-5	-7.634e-6
0.840	7.186e-5	-7.633e-6
0.846	7.365e-5	-7.636e-6
0.852	7.536e-5	-7.632e-6
0.858	7.706e-5	-7.642e-6
0.864	7.896e-5	-7.656e-6
0.870	8.110e-5	-7.647e-6
0.876	8.328e-5	-7.649e-6
0.882	8.550e-5	-7.657e-6
0.888	8.788e-5	-7.662e-6
0.894	9.035e-5	-7.642e-6
0.900	8.783e-5	-7.673e-6
0.894	5.138e-5	-7.672e-6
0.888	3.947e-5	-7.673e-6
0.882	3.164e-5	-7.658e-6
0.876	2.561e-5	-7.687e-6
0.870	2.080e-5	-7.673e-6
0.864	1.685e-5	-7.663e-6
0.858	1.368e-5	-7.669e-6
0.852	1.086e-5	-7.668e-6
0.846	8.411e-6	-7.673e-6
0.840	6.274e-6	-7.660e-6
0.834	4.445e-6	-7.659e-6
0.828	2.720e-6	-7.657e-6
0.822	1.297e-6	-7.661e-6
0.816	-1.523e-7	-7.673e-6
0.810	-1.224e-6	-7.657e-6
0.804	-2.308e-6	-7.663e-6
0.798	-3.260e-6	-7.659e-6
0.792	-4.178e-6	-7.657e-6
0.786	-5.024e-6	-7.658e-6
0.780	-5.785e-6	-7.655e-6
0.774	-6.511e-6	-7.648e-6
0.768	-7.178e-6	-7.646e-6
0.762	-7.700e-6	-7.653e-6
0.756	-8.267e-6	-7.650e-6
0.750	-8.728e-6	-7.689e-6
0.744	-9.178e-6	-7.728e-6
0.738	-9.618e-6	-7.748e-6
0.732	-1.010e-5	-7.746e-6
0.726	-1.044e-5	-7.748e-6
0.720	-1.080e-5	-7.748e-6
0.714	-1.113e-5	-7.741e-6
0.708	-1.140e-5	-7.738e-6
0.702	-1.166e-5	-7.736e-6
0.696	-1.194e-5	-7.743e-6
0.690	-1.218e-5	-7.746e-6
0.684	-1.248e-5	-7.738e-6
0.678	-1.268e-5	-7.738e-6
0.672	-1.288e-5	-7.735e-6
0.666	-1.311e-5	-7.749e-6
0.660	-1.329e-5	-7.740e-6
0.654	-1.342e-5	-7.742e-6
0.648	-1.360e-5	-7.734e-6
0.642	-1.381e-5	-7.743e-6
0.636	-1.396e-5	-7.737e-6
0.630	-1.405e-5	-7.742e-6
0.624	-1.421e-5	-7.737e-6
0.618	-1.436e-5	-7.743e-6
0.612	-1.454e-5	-7.748e-6
0.606	-1.459e-5	-7.742e-6
0.600	-1.471e-5	-7.740e-6
0.594	-1.485e-5	-7.741e-6
0.588	-1.498e-5	-7.746e-6
0.582	-1.507e-5	-7.741e-6
0.576	-1.518e-5	-7.748e-6
0.570	-1.530e-5	-7.745e-6
0.564	-1.548e-5	-7.753e-6
0.558	-1.559e-5	-7.748e-6
0.552	-1.574e-5	-7.747e-6
0.546	-1.586e-5	-7.756e-6
0.540	-1.601e-5	-7.755e-6
0.534	-1.606e-5	-7.747e-6
0.528	-1.616e-5	-7.735e-6
0.522	-1.626e-5	-7.739e-6
0.516	-1.637e-5	-7.752e-6
0.510	-1.641e-5	-7.750e-6
0.504	-1.655e-5	-7.751e-6
0.498	-1.669e-5	-7.736e-6
0.492	-1.678e-5	-7.742e-6
0.486	-1.683e-5	-7.739e-6
0.480	-1.696e-5	-7.747e-6
0.474	-1.704e-5	-7.740e-6
0.468	-1.717e-5	-7.740e-6
0.462	-1.724e-5	-7.741e-6
0.456	-1.735e-5	-7.732e-6
0.450	-1.742e-5	-7.742e-6
0.444	-1.752e-5	-7.745e-6
0.438	-1.760e-5	-7.732e-6
0.432	-1.767e-5	-7.725e-6
0.426	-1.779e-5	-7.724e-6
0.420	-1.789e-5	-7.720e-6
0.414	-1.796e-5	-7.732e-6
0.408	-1.816e-5	-7.735e-6
0.402	-1.820e-5	-7.742e-6
0.396	-1.829e-5	-7.742e-6
0.390	-1.835e-5	-7.743e-6
0.384	-1.844e-5	-7.742e-6
0.378	-1.853e-5	-7.739e-6
0.372	-1.865e-5	-7.743e-6
0.366	-1.873e-5	-7.751e-6
0.360	-1.884e-5	-7.763e-6
0.354	-1.895e-5	-7.751e-6
0.348	-1.907e-5	-7.757e-6
0.342	-1.913e-5	-7.752e-6
0.336	-1.924e-5	-7.752e-6
0.330	-1.931e-5	-7.737e-6
0.324	-1.945e-5	-7.744e-6
0.318	-1.954e-5	-7.740e-6
0.312	-1.967e-5	-7.745e-6
0.306	-1.984e-5	-7.755e-6
0.300	-1.996e-5	-7.743e-6
0.294	-2.005e-5	-7.755e-6
0.288	-2.018e-5	-7.744e-6
0.282	-2.031e-5	-7.751e-6
0.276	-2.045e-5	-7.740e-6
0.270	-2.056e-5	-7.742e-6
0.264	-2.070e-5	-7.746e-6
0.258	-2.084e-5	-7.746e-6
0.252	-2.101e-5	-7.743e-6
0.246	-2.111e-5	-7.748e-6
0.240	-2.128e-5	-7.739e-6
0.234	-2.143e-5	-7.743e-6
0.228	-2.160e-5	-7.732e-6
0.222	-2.174e-5	-7.742e-6
0.216	-2.191e-5	-7.745e-6
0.210	-2.207e-5	-7.738e-6
0.204	-2.235e-5	-7.737e-6
0.198	-2.243e-5	-7.745e-6
0.192	-2.259e-5	-7.740e-6
0.186	-2.275e-5	-7.747e-6
0.180	-2.294e-5	-7.745e-6
0.174	-2.305e-5	-7.739e-6
0.168	-2.322e-5	-7.734e-6
0.162	-2.340e-5	-7.736e-6
0.156	-2.358e-5	-7.738e-6
0.150	-2.374e-5	-7.739e-6
0.144	-2.393e-5	-7.736e-6
0.138	-2.412e-5	-7.741e-6
0.132	-2.435e-5	-7.746e-6
0.126	-2.449e-5	-7.730e-6
0.120	-2.471e-5	-7.747e-6
0.114	-2.493e-5	-7.737e-6
0.108	-2.514e-5	-7.728e-6
0.102	-2.535e-5	-7.750e-6
0.096	-2.551e-5	-7.750e-6
0.090	-2.570e-5	-7.754e-6
0.084	-2.594e-5	-7.747e-6
0.078	-2.614e-5	-7.745e-6
0.072	-2.634e-5	-7.737e-6
0.066	-2.655e-5	-7.740e-6
0.060	-2.677e-5	-7.729e-6
0.054	-2.693e-5	-7.731e-6
0.048	-2.710e-5	-7.724e-6
0.042	-2.726e-5	-7.733e-6
0.036	-2.744e-5	-7.728e-6
0.030	-2.756e-5	-7.735e-6
0.024	-2.766e-5	-7.722e-6
0.018	-2.782e-5	-7.731e-6
0.012	-2.797e-5	-7.730e-6
0.006	-2.810e-5	-7.734e-6
0.000	-2.840e-5	-7.756e-6
-0.006	-2.843e-5	-7.746e-6
-0.012	-2.851e-5	-7.762e-6
-0.018	-2.851e-5	-7.757e-6
-0.024	-2.854e-5	-7.759e-6
-0.030	-2.863e-5	-7.748e-6
-0.036	-2.867e-5	-7.756e-6
-0.042	-2.863e-5	-7.754e-6
-0.048	-2.861e-5	-7.750e-6
-0.054	-2.857e-5	-7.756e-6
-0.060	-2.855e-5	-7.749e-6
-0.066	-2.846e-5	-7.750e-6
-0.072	-2.838e-5	-7.736e-6
-0.078	-2.830e-5	-7.735e-6
-0.084	-2.819e-5	-7.744e-6
-0.090	-2.808e-5	-7.732e-6
-0.096	-2.796e-5	-7.731e-6
-0.102	-2.790e-5	-7.732e-6
-0.108	-2.782e-5	-7.736e-6
-0.114	-2.768e-5	-7.734e-6
-0.120	-2.756e-5	-7.732e-6
-0.126	-2.747e-5	-7.735e-6
-0.132	-2.741e-5	-7.727e-6
-0.138	-2.732e-5	-7.740e-6
-0.144	-2.726e-5	-7.728e-6
-0.150	-2.724e-5	-7.717e-6
-0.156	-2.724e-5	-7.732e-6
-0.162	-2.725e-5	-7.732e-6
-0.168	-2.738e-5	-7.728e-6
-0.174	-2.739e-5	-7.734e-6
-0.180	-2.751e-5	-7.732e-6
-0.186	-2.762e-5	-7.731e-6
-0.192	-2.782e-5	-7.737e-6
-0.198	-2.810e-5	-7.741e-6
-0.204	-2.846e-5	-7.743e-6
-0.210	-2.887e-5	-7.758e-6
-0.216	-2.930e-5	-7.755e-6
-0.222	-2.981e-5	-7.755e-6
-0.228	-3.038e-5	-7.762e-6
-0.234	-3.096e-5	-7.748e-6
-0.240	-3.163e-5	-7.735e-6
-0.246	-3.241e-5	-7.749e-6
-0.252	-3.322e-5	-7.744e-6
-0.258	-3.405e-5	-7.750e-6
-0.264	-3.496e-5	-7.748e-6
-0.270	-3.591e-5	-7.748e-6
-0.276	-3.697e-5	-7.759e-6
-0.282	-3.802e-5	-7.745e-6
-0.288	-3.914e-5	-7.745e-6
-0.294	-4.056e-5	-7.746e-6
-0.300	-4.178e-5	-7.736e-6
-0.306	-4.310e-5	-7.734e-6
-0.312	-4.452e-5	-7.739e-6
-0.318	-4.601e-5	-7.731e-6
-0.324	-4.754e-5	-7.724e-6
-0.330	-4.911e-5	-7.764e-6
-0.336	-5.080e-5	-7.746e-6
-0.342	-5.262e-5	-7.740e-6
-0.348	-5.452e-5	-7.753e-6
-0.354	-5.650e-5	-7.743e-6
-0.360	-5.863e-5	-7.743e-6
-0.366	-6.091e-5	-7.733e-6
-0.372	-6.320e-5	-7.734e-6
-0.378	-6.557e-5	-7.727e-6
-0.384	-6.803e-5	-7.732e-6
-0.390	-7.068e-5	-7.732e-6
-0.396	-7.347e-5	-7.733e-6
-0.402	-7.632e-5	-7.720e-6
-0.408	-7.934e-5	-7.723e-6
-0.414	-8.257e-5	-7.738e-6
-0.420	-8.599e-5	-7.707e-6
-0.426	-8.946e-5	-7.757e-6
-0.432	-9.310e-5	-7.752e-6
-0.438	-9.690e-5	-7.746e-6
-0.444	-1.009e-4	-7.739e-6
-0.450	-1.049e-4	-7.741e-6
-0.456	-1.091e-4	-7.748e-6
-0.462	-1.134e-4	-7.751e-6
-0.468	-1.180e-4	-7.735e-6
-0.474	-1.226e-4	-7.729e-6
-0.480	-1.274e-4	-7.754e-6
-0.486	-1.323e-4	-7.759e-6
-0.492	-1.377e-4	-7.745e-6
-0.498	-1.429e-4	-7.733e-6
-0.504	-1.483e-4	-7.748e-6
-0.510	-1.538e-4	-7.737e-6
-0.516	-1.597e-4	-7.726e-6
-0.522	-1.658e-4	-7.728e-6
-0.528	-1.720e-4	-7.767e-6
-0.534	-1.783e-4	-7.759e-6
-0.540	-1.849e-4	-7.737e-6
-0.546	-1.920e-4	-7.738e-6
-0.552	-1.987e-4	-7.728e-6
-0.558	-2.060e-4	-7.749e-6
-0.564	-2.135e-4	-7.736e-6
-0.570	-2.210e-4	-7.732e-6
-0.576	-2.288e-4	-7.733e-6
-0.582	-2.368e-4	-7.726e-6
-0.588	-2.452e-4	-7.747e-6
-0.594	-2.541e-4	-7.739e-6
-0.600	-2.596e-4	-7.721e-6
-0.594	-2.373e-4	-7.699e-6
-0.588	-2.216e-4	-7.713e-6
-0.582	-2.080e-4	-7.730e-6
-0.576	-1.957e-4	-7.701e-6
-0.570	-1.843e-4	-7.716e-6
-0.564	-1.738e-4	-7.728e-6
-0.558	-1.639e-4	-7.698e-6
-0.552	-1.545e-4	-7.713e-6
-0.546	-1.456e-4	-7.709e-6
-0.540	-1.372e-4	-7.728e-6
-0.534	-1.293e-4	-7.734e-6
-0.528	-1.218e-4	-7.723e-6
-0.522	-1.147e-4	-7.722e-6
-0.516	-1.078e-4	-7.739e-6
-0.510	-1.013e-4	-7.732e-6
-0.504	-9.511e-5	-7.737e-6
-0.498	-8.910e-5	-7.753e-6
-0.492	-8.334e-5	-7.712e-6
-0.486	-7.789e-5	-7.720e-6
-0.480	-7.278e-5	-7.724e-6
-0.474	-6.785e-5	-7.728e-6
-0.468	-6.316e-5	-7.731e-6
-0.462	-5.861e-5	-7.740e-6
-0.456	-5.427e-5	-7.736e-6
-0.450	-5.001e-5	-7.750e-6
-0.444	-4.603e-5	-7.716e-6
-0.438	-4.218e-5	-7.718e-6
-0.432	-3.855e-5	-7.730e-6
-0.426	-3.506e-5	-7.737e-6
-0.420	-3.165e-5	-7.742e-6
-0.414	-2.844e-5	-7.730e-6
-0.408	-2.530e-5	-7.732e-6
-0.402	-2.241e-5	-7.724e-6
-0.396	-1.953e-5	-7.744e-6
-0.390	-1.691e-5	-7.743e-6
-0.384	-1.432e-5	-7.745e-6
-0.378	-1.180e-5	-7.741e-6
-0.372	-9.372e-6	-7.738e-6
-0.366	-7.083e-6	-7.656e-6
-0.360	-4.856e-6	-7.667e-6
-0.354	-2.715e-6	-7.667e-6
-0.348	-6.533e-7	-7.671e-6
-0.342	1.315e-6	-7.681e-6
-0.336	3.114e-6	-7.665e-6
-0.330	4.894e-6	-7.680e-6
-0.324	6.609e-6	-7.683e-6
-0.318	8.207e-6	-7.692e-6
-0.312	9.742e-6	-7.695e-6
-0.306	1.121e-5	-7.673e-6
-0.300	1.256e-5	-7.676e-6
-0.294	1.376e-5	-7.676e-6
-0.288	1.485e-5	-7.685e-6
-0.282	1.590e-5	-7.677e-6
-0.276	1.694e-5	-7.679e-6
-0.270	1.791e-5	-7.682e-6
-0.264	1.879e-5	-7.682e-6
-0.258	1.961e-5	-7.684e-6
-0.252	2.041e-5	-7.686e-6
-0.246	2.108e-5	-7.676e-6
-0.240	2.166e-5	-7.674e-6
-0.234	2.225e-5	-7.694e-6
-0.228	2.281e-5	-7.683e-6
-0.222	2.333e-5	-7.691e-6
-0.216	2.381e-5	-7.692e-6
-0.210	2.426e-5	-7.688e-6
-0.204	2.469e-5	-7.680e-6
-0.198	2.504e-5	-7.696e-6
-0.192	2.537e-5	-7.688e-6
-0.186	2.574e-5	-7.689e-6
-0.180	2.607e-5	-7.702e-6
-0.174	2.638e-5	-7.689e-6
-0.168	2.667e-5	-7.699e-6
-0.162	2.695e-5	-7.686e-6
-0.156	2.720e-5	-7.692e-6
-0.150	2.747e-5	-7.697e-6
-0.144	2.773e-5	-7.696e-6
-0.138	2.803e-5	-7.700e-6
-0.132	2.831e-5	-7.708e-6
-0.126	2.850e-5	-7.701e-6
-0.120	2.870e-5	-7.702e-6
-0.114	2.892e-5	-7.698e-6
-0.108	2.915e-5	-7.703e-6
-0.102	2.939e-5	-7.690e-6
-0.096	2.962e-5	-7.692e-6
-0.090	2.991e-5	-7.693e-6
-0.084	3.022e-5	-7.699e-6
-0.078	3.047e-5	-7.690e-6
-0.072	3.066e-5	-7.689e-6
-0.066	3.091e-5	-7.666e-6
-0.060	3.114e-5	-7.675e-6
-0.054	3.138e-5	-7.673e-6
-0.048	3.168e-5	-7.664e-6
-0.042	3.196e-5	-7.674e-6
-0.036	3.231e-5	-7.678e-6
-0.030	3.266e-5	-7.676e-6
-0.024	3.296e-5	-7.684e-6
-0.018	3.325e-5	-7.675e-6
-0.012	3.350e-5	-7.673e-6
-0.006	3.376e-5	-7.676e-6
-0.000	3.425e-5	-7.674e-6
0.006	3.455e-5	-7.666e-6
0.012	3.486e-5	-7.664e-6
0.018	3.520e-5	-7.671e-6
0.024	3.555e-5	-7.665e-6
0.030	3.591e-5	-7.669e-6
0.036	3.634e-5	-7.666e-6
0.042	3.677e-5	-7.662e-6
0.048	3.728e-5	-7.670e-6
0.054	3.780e-5	-7.680e-6
0.060	3.831e-5	-7.671e-6
0.066	3.882e-5	-7.674e-6
0.072	3.929e-5	-7.678e-6
0.078	3.977e-5	-7.679e-6
0.084	4.032e-5	-7.680e-6
0.090	4.083e-5	-7.675e-6
0.096	4.132e-5	-7.679e-6
0.102	4.179e-5	-7.676e-6
0.108	4.218e-5	-7.674e-6
0.114	4.251e-5	-7.678e-6
0.120	4.273e-5	-7.677e-6
0.126	4.275e-5	-7.673e-6
0.132	4.267e-5	-7.676e-6
0.138	4.257e-5	-7.685e-6
0.144	4.245e-5	-7.681e-6
0.150	4.240e-5	-7.682e-6
0.156	4.240e-5	-7.678e-6
0.162	4.233e-5	-7.674e-6
0.168	4.234e-5	-7.678e-6
0.174	4.243e-5	-7.683e-6
0.180	4.262e-5	-7.688e-6
0.186	4.282e-5	-7.683e-6
0.192	4.300e-5	-7.685e-6
0.198	4.333e-5	-7.684e-6
0.204	4.374e-5	-7.685e-6
0.210	4.417e-5	-7.672e-6
0.216	4.458e-5	-7.687e-6
0.222	4.504e-5	-7.676e-6
0.228	4.553e-5	-7.678e-6
0.234	4.597e-5	-7.682e-6
0.240	4.639e-5	-7.680e-6
0.246	4.682e-5	-7.676e-6
0.252	4.719e-5	-7.685e-6
0.258	4.752e-5	-7.683e-6
0.264	4.771e-5	-7.688e-6
0.270	4.789e-5	-7.689e-6
0.276	4.804e-5	-7.687e-6
0.282	4.807e-5	-7.695e-6
0.288	4.805e-5	-7.688e-6
0.294	4.802e-5	-7.692e-6
0.300	4.796e-5	-7.698e-6
0.306	4.782e-5	-7.685e-6
0.312	4.763e-5	-7.690e-6
0.318	4.739e-5	-7.683e-6
0.324	4.716e-5	-7.691e-6
0.330	4.685e-5	-7.686e-6
0.336	4.653e-5	-7.691e-6
0.342	4.622e-5	-7.689e-6
0.348	4.596e-5	-7.686e-6
0.354	4.562e-5	-7.693e-6
0.360	4.527e-5	-7.686e-6
0.366	4.491e-5	-7.693e-6
0.372	4.457e-5	-7.696e-6
0.378	4.420e-5	-7.684e-6
0.384	4.386e-5	-7.688e-6
0.390	4.357e-5	-7.679e-6
0.396	4.333e-5	-7.670e-6
0.402	4.306e-5	-7.675e-6
0.408	4.282e-5	-7.674e-6
0.414	4.271e-5	-7.688e-6
0.420	4.253e-5	-7.676e-6
0.426	4.234e-5	-7.668e-6
0.432	4.216e-5	-7.683e-6
0.438	4.205e-5	-7.679e-6
0.444	4.201e-5	-7.675e-6
0.450	4.192e-5	-7.677e-6
0.456	4.190e-5	-7.670e-6
0.462	4.196e-5	-7.681e-6
0.468	4.197e-5	-7.686e-6
0.474	4.198e-5	-7.674e-6
0.480	4.198e-5	-7.684e-6
0.486	4.207e-5	-7.674e-6
0.492	4.221e-5	-7.681e-6
0.498	4.232e-5	-7.683e-6
0.504	4.247e-5	-7.683e-6
0.510	4.269e-5	-7.685e-6
0.516	4.293e-5	-7.693e-6
0.522	4.313e-5	-7.685e-6
0.528	4.336e-5	-7.683e-6
0.534	4.364e-5	-7.681e-6
0.540	4.393e-5	-7.690e-6
0.546	4.422e-5	-7.696e-6
0.552	4.448e-5	-7.694e-6
0.558	4.480e-5	-7.695e-6
0.564	4.522e-5	-7.690e-6
0.570	4.556e-5	-7.682e-6
0.576	4.594e-5	-7.689e-6
0.582	4.643e-5	-7.679e-6
0.588	4.694e-5	-7.683e-6
0.594	4.742e-5	-7.692e-6
0.600	4.791e-5	-7.691e-6
0.606	4.851e-5	-7.694e-6
0.612	4.914e-5	-7.692e-6
0.618	4.976e-5	-7.687e-6
0.624	5.032e-5	-7.678e-6
0.630	5.103e-5	-7.672e-6
0.636	5.176e-5	-7.672e-6
0.642	5.245e-5	-7.697e-6
0.648	5.316e-5	-7.691e-6
0.654	5.393e-5	-7.695e-6
0.660	5.469e-5	-7.696e-6
0.666	5.547e-5	-7.697e-6
0.672	5.623e-5	-7.691e-6
0.678	5.704e-5	-7.695e-6
0.684	5.792e-5	-7.686e-6
0.690	5.873e-5	-7.686e-6
0.696	5.955e-5	-7.704e-6
0.702	6.046e-5	-7.692e-6
0.708	6.138e-5	-7.682e-6
0.714	6.230e-5	-7.685e-6
0.720	6.324e-5	-7.696e-6
0.726	6.422e-5	-7.697e-6
0.732	6.525e-5	-7.694e-6
0.738	6.620e-5	-7.701e-6
0.744	6.718e-5	-7.702e-6
0.750	6.824e-5	-7.712e-6
0.756	6.932e-5	-7.708e-6
0.762	7.042e-5	-7.672e-6
0.768	7.157e-5	-7.662e-6
0.774	7.277e-5	-7.672e-6
0.780	7.403e-5	-7.663e-6
0.786	7.522e-5	-7.663e-6
0.792	7.645e-5	-7.678e-6
0.798	7.784e-5	-7.682e-6
0.804	7.925e-5	-7.689e-6
0.810	8.067e-5	-7.678e-6
0.816	8.205e-5	-7.681e-6
0.822	8.373e-5	-7.676e-6
0.828	8.526e-5	-7.670e-6
0.834	8.686e-5	-7.685e-6
0.840	8.850e-5	-7.685e-6
0.846	9.029e-5	-7.667e-6
0.852	9.219e-5	-7.674e-6
0.858	9.400e-5	-7.676e-6
0.864	9.600e-5	-7.679e-6
0.870	9.821e-5	-7.687e-6
0.876	1.005e-4	-7.678e-6
0.882	1.029e-4	-7.700e-6
0.888	1.054e-4	-7.690e-6
0.894	1.080e-4	-7.697e-6
0.900	1.055e-4	-7.710e-6
0.894	6.780e-5	-7.723e-6
0.888	5.485e-5	-7.698e-6
0.882	4.588e-5	-7.698e-6
0.876	3.880e-5	-7.703e-6
0.870	3.307e-5	-7.694e-6
0.864	2.819e-5	-7.711e-6
0.858	2.405e-5	-7.709e-6
0.852	2.047e-5	-7.718e-6
0.846	1.738e-5	-7.702e-6
0.840	1.465e-5	-7.696e-6
0.834	1.223e-5	-7.705e-6
0.828	1.004e-5	-7.706e-6
0.822	8.098e-6	-7.692e-6
0.816	6.172e-6	-7.709e-6
0.810	4.593e-6	-7.705e-6
0.804	3.082e-6	-7.698e-6
0.798	1.784e-6	-7.691e-6
0.792	5.031e-7	-7.700e-6
0.786	-6.592e-7	-7.697e-6
0.780	-1.770e-6	-7.686e-6
0.774	-2.714e-6	-7.679e-6
0.768	-3.637e-6	-7.683e-6
0.762	-4.413e-6	-7.684e-6
0.756	-5.205e-6	-7.682e-6
0.750	-5.884e-6	-7.690e-6
0.744	-6.575e-6	-7.684e-6
0.738	-7.177e-6	-7.678e-6
0.732	-7.781e-6	-7.675e-6
0.726	-8.313e-6	-7.682e-6
0.720	-8.835e-6	-7.730e-6
0.714	-9.286e-6	-7.764e-6
0.708	-9.709e-6	-7.783e-6
0.702	-1.009e-5	-7.783e-6
0.696	-1.044e-5	-7.773e-6
0.690	-1.077e-5	-7.770e-6
0.684	-1.110e-5	-7.769e-6
0.678	-1.135e-5	-7.767e-6
0.672	-1.169e-5	-7.753e-6
0.666	-1.204e-5	-7.772e-6
0.660	-1.230e-5	-7.765e-6
0.654	-1.251e-5	-7.770e-6
0.648	-1.273e-5	-7.771e-6
0.642	-1.300e-5	-7.768e-6
0.636	-1.322e-5	-7.763e-6
0.630	-1.341e-5	-7.767e-6
0.624	-1.362e-5	-7.765e-6
0.618	-1.380e-5	-7.766e-6
0.612	-1.401e-5	-7.770e-6
0.606	-1.412e-5	-7.764e-6
0.600	-1.430e-5	-7.762e-6
0.594	-1.449e-5	-7.770e-6
0.588	-1.464e-5	-7.768e-6
0.582	-1.476e-5	-7.756e-6
0.576	-1.491e-5	-7.764e-6
0.570	-1.507e-5	-7.757e-6
0.564	-1.522e-5	-7.763e-6
0.558	-1.530e-5	-7.757e-6
0.552	-1.546e-5	-7.762e-6
0.546	-1.561e-5	-7.767e-6
0.540	-1.576e-5	-7.767e-6
0.534	-1.582e-5	-7.761e-6
0.528	-1.596e-5	-7.757e-6
0.522	-1.607e-5	-7.762e-6
0.516	-1.622e-5	-7.758e-6
0.510	-1.635e-5	-7.758e-6
0.504	-1.646e-5	-7.769e-6
0.498	-1.660e-5	-7.762e-6
0.492	-1.672e-5	-7.761e-6
0.486	-1.675e-5	-7.759e-6
0.480	-1.685e-5	-7.758e-6
0.474	-1.696e-5	-7.755e-6
0.468	-1.707e-5	-7.764e-6
0.462	-1.717e-5	-7.756e-6
0.456	-1.729e-5	-7.783e-6
0.450	-1.739e-5	-7.772e-6
0.444	-1.749e-5	-7.778e-6
0.438	-1.756e-5	-7.755e-6
0.432	-1.765e-5	-7.755e-6
0.426	-1.775e-5	-7.751e-6
0.420	-1.786e-5	-7.750e-6
0.414	-1.792e-5	-7.752e-6
0.408	-1.813e-5	-7.752e-6
0.402	-1.817e-5	-7.751e-6
0.396	-1.829e-5	-7.756e-6
0.390	-1.838e-5	-7.749e-6
0.384	-1.849e-5	-7.756e-6
0.378	-1.860e-5	-7.752e-6
0.372	-1.871e-5	-7.762e-6
0.366	-1.877e-5	-7.759e-6
0.360	-1.889e-5	-7.754e-6
0.354	-1.900e-5	-7.757e-6
0.348	-1.915e-5	-7.772e-6
0.342	-1.921e-5	-7.768e-6
0.336	-1.933e-5	-7.755e-6
0.330	-1.944e-5	-7.755e-6
0.324	-1.959e-5	-7.762e-6
0.318	-1.966e-5	-7.770e-6
0.312	-1.977e-5	-7.755e-6
0.306	-1.992e-5	-7.757e-6
0.300	-2.003e-5	-7.762e-6
0.294	-2.011e-5	-7.761e-6
0.288	-2.026e-5	-7.761e-6
0.282	-2.036e-5	-7.757e-6
0.276	-2.055e-5	-7.764e-6
0.270	-2.067e-5	-7.762e-6
0.264	-2.080e-5	-7.759e-6
0.258	-2.095e-5	-7.757e-6
0.252	-2.110e-5	-7.759e-6
0.246	-2.119e-5	-7.758e-6
0.240	-2.133e-5	-7.752e-6
0.234	-2.150e-5	-7.751e-6
0.228	-2.163e-5	-7.747e-6
0.222	-2.175e-5	-7.754e-6
0.216	-2.194e-5	-7.747e-6
0.210	-2.209e-5	-7.744e-6
0.204	-2.234e-5	-7.749e-6
0.198	-2.242e-5	-7.753e-6
0.192	-2.258e-5	-7.777e-6
0.186	-2.273e-5	-7.758e-6
0.180	-2.291e-5	-7.762e-6
0.174	-2.303e-5	-7.742e-6
0.168	-2.319e-5	-7.747e-6
0.162	-2.336e-5	-7.752e-6
0.156	-2.355e-5	-7.741e-6
0.150	-2.372e-5	-7.743e-6
0.144	-2.388e-5	-7.750e-6
0.138	-2.406e-5	-7.742e-6
0.132	-2.428e-5	-7.745e-6
0.126	-2.441e-5	-7.751e-6
0.120	-2.459e-5	-7.751e-6
0.114	-2.479e-5	-7.752e-6
0.108	-2.500e-5	-7.748e-6
0.102	-2.521e-5	-7.746e-6
0.096	-2.538e-5	-7.753e-6
0.090	-2.557e-5	-7.760e-6
0.084	-2.577e-5	-7.753e-6
0.078	-2.594e-5	-7.747e-6
0.072	-2.609e-5	-7.747e-6
0.066	-2.631e-5	-7.755e-6
0.060	-2.653e-5	-7.751e-6
0.054	-2.671e-5	-7.746e-6
0.048	-2.690e-5	-7.749e-6
0.042	-2.710e-5	-7.748e-6
0.036	-2.728e-5	-7.743e-6
0.030	-2.742e-5	-7.736e-6
0.024	-2.756e-5	-7.738e-6
0.018	-2.774e-5	-7.731e-6
0.012	-2.790e-5	-7.732e-6
0.006	-2.802e-5	-7.742e-6
0.000	-2.833e-5	-7.750e-6
-0.006	-2.837e-5	-7.748e-6
-0.012	-2.848e-5	-7.755e-6
-0.018	-2.852e-5	-7.748e-6
-0.024	-2.857e-5	-7.761e-6
-0.030	-2.862e-5	-7.761e-6
-0.036	-2.866e-5	-7.762e-6
-0.042	-2.865e-5	-7.764e-6
-0.048	-2.865e-5	-7.764e-6
-0.054	-2.863e-5	-7.767e-6
-0.060	-2.862e-5	-7.760e-6
-0.066	-2.854e-5	-7.747e-6
-0.072	-2.846e-5	-7.766e-6
-0.078	-2.838e-5	-7.755e-6
-0.084	-2.833e-5	-7.764e-6
-0.090	-2.820e-5	-7.751e-6
-0.096	-2.809e-5	-7.755e-6
-0.102	-2.799e-5	-7.759e-6
-0.108	-2.789e-5	-7.759e-6
-0.114	-2.774e-5	-7.762e-6
-0.120	-2.761e-5	-7.765e-6
-0.126	-2.750e-5	-7.753e-6
-0.132	-2.739e-5	-7.747e-6
-0.138	-2.726e-5	-7.738e-6
-0.144	-2.716e-5	-7.748e-6
-0.150	-2.708e-5	-7.746e-6
-0.156	-2.705e-5	-7.747e-6
-0.162	-2.702e-5	-7.743e-6
-0.168	-2.700e-5	-7.745e-6
-0.174	-2.703e-5	-7.749e-6
-0.180	-2.710e-5	-7.745e-6
-0.186	-2.723e-5	-7.737e-6
-0.192	-2.739e-5	-7.740e-6
-0.198	-2.757e-5	-7.751e-6
-0.204	-2.779e-5	-7.745e-6
-0.210	-2.806e-5	-7.757e-6
-0.216	-2.842e-5	-7.759e-6
-0.222	-2.876e-5	-7.770e-6
-0.228	-2.919e-5	-7.772e-6
-0.234	-2.966e-5	-7.763e-6
-0.240	-3.014e-5	-7.764e-6
-0.246	-3.076e-5	-7.761e-6
-0.252	-3.150e-5	-7.757e-6
-0.258	-3.219e-5	-7.779e-6
-0.264	-3.295e-5	-7.757e-6
-0.270	-3.374e-5	-7.761e-6
-0.276	-3.464e-5	-7.763e-6
-0.282	-3.555e-5	-7.761e-6
-0.288	-3.653e-5	-7.755e-6
-0.294	-3.760e-5	-7.741e-6
-0.300	-3.877e-5	-7.755e-6
-0.306	-3.995e-5	-7.754e-6
-0.312	-4.124e-5	-7.752e-6
-0.318	-4.258e-5	-7.750e-6
-0.324	-4.404e-5	-7.751e-6
-0.330	-4.561e-5	-7.744e-6
-0.336	-4.718e-5	-7.732e-6
-0.342	-4.887e-5	-7.769e-6
-0.348	-5.070e-5	-7.757e-6
-0.354	-5.261e-5	-7.760e-6
-0.360	-5.467e-5	-7.761e-6
-0.366	-5.683e-5	-7.749e-6
-0.372	-5.916e-5	-7.752e-6
-0.378	-6.155e-5	-7.744e-6
-0.384	-6.412e-5	-7.749e-6
-0.390	-6.681e-5	-7.734e-6
-0.396	-6.972e-5	-7.757e-6
-0.402	-7.272e-5	-7.747e-6
-0.408	-7.589e-5	-7.742e-6
-0.414	-7.923e-5	-7.738e-6
-0.420	-8.271e-5	-7.730e-6
-0.426	-8.635e-5	-7.726e-6
-0.432	-9.006e-5	-7.768e-6
-0.438	-9.398e-5	-7.760e-6
-0.444	-9.810e-5	-7.764e-6
-0.450	-1.023e-4	-7.752e-6
-0.456	-1.065e-4	-7.746e-6
-0.462	-1.111e-4	-7.754e-6
-0.468	-1.157e-4	-7.744e-6
-0.474	-1.204e-4	-7.742e-6
-0.480	-1.252e-4	-7.732e-6
-0.486	-1.304e-4	-7.762e-6
-0.492	-1.355e-4	-7.747e-6
-0.498	-1.409e-4	-7.739e-6
-0.504	-1.463e-4	-7.736e-6
-0.510	-1.519e-4	-7.742e-6
-0.516	-1.580e-4	-7.730e-6
-0.522	-1.641e-4	-7.724e-6
-0.528	-1.704e-4	-7.758e-6
-0.534	-1.767e-4	-7.761e-6
-0.540	-1.830e-4	-7.765e-6
-0.546	-1.903e-4	-7.746e-6
-0.552	-1.968e-4	-7.751e-6
-0.558	-2.038e-4	-7.730e-6
-0.564	-2.110e-4	-7.759e-6
-0.570	-2.185e-4	-7.740e-6
-0.576	-2.259e-4	-7.747e-6
-0.582	-2.337e-4	-7.737e-6
-0.588	-2.419e-4	-7.726e-6
-0.594	-2.504e-4	-7.758e-6
-0.600	-2.557e-4	-7.752e-6
-0.594	-2.333e-4	-7.716e-6
-0.588	-2.176e-4	-7.740e-6
-0.582	-2.042e-4	-7.719e-6
-0.576	-1.920e-4	-7.732e-6
-0.570	-1.809e-4	-7.725e-6
-0.564	-1.705e-4	-7.745e-6
-0.558	-1.607e-4	-7.722e-6
-0.552	-1.514e-4	-7.726e-6
-0.546	-1.428e-4	-7.724e-6
-0.540	-1.346e-4	-7.740e-6
-0.534	-1.268e-4	-7.735e-6
-0.528	-1.195e-4	-7.735e-6
-0.522	-1.124e-4	-7.755e-6
-0.516	-1.057e-4	-7.740e-6
-0.510	-9.933e-5	-7.753e-6
-0.504	-9.321e-5	-7.756e-6
-0.498	-8.739e-5	-7.730e-6
-0.492	-8.177e-5	-7.720e-6
-0.486	-7.650e-5	-7.723e-6
-0.480	-7.140e-5	-7.704e-6
-0.474	-6.652e-5	-7.721e-6
-0.468	-6.191e-5	-7.733e-6
-0.462	-5.742e-5	-7.734e-6
-0.456	-5.319e-5	-7.748e-6
-0.450	-4.915e-5	-7.753e-6
-0.444	-4.526e-5	-7.726e-6
-0.438	-4.147e-5	-7.723e-6
-0.432	-3.787e-5	-7.742e-6
-0.426	-3.440e-5	-7.741e-6
-0.420	-3.106e-5	-7.749e-6
-0.414	-2.785e-5	-7.733e-6
-0.408	-2.477e-5	-7.740e-6
-0.402	-2.188e-5	-7.738e-6
-0.396	-1.899e-5	-7.750e-6
-0.390	-1.624e-5	-7.754e-6
-0.384	-1.367e-5	-7.761e-6
-0.378	-1.115e-5	-7.757e-6
-0.372	-8.692e-6	-7.701e-6
-0.366	-6.391e-6	-7.669e-6
-0.360	-4.141e-6	-7.672e-6
-0.354	-2.074e-6	-7.662e-6
-0.348	4.251e-8	-7.681e-6
-0.342	2.031e-6	-7.672e-6
-0.336	3.843e-6	-7.684e-6
-0.330	5.628e-6	-7.689e-6
-0.324	7.380e-6	-7.692e-6
-0.318	8.993e-6	-7.698e-6
-0.312	1.053e-5	-7.690e-6
-0.306	1.199e-5	-7.685e-6
-0.300	1.328e-5	-7.680e-6
-0.294	1.447e-5	-7.697e-6
-0.288	1.558e-5	-7.693e-6
-0.282	1.670e-5	-7.693e-6
-0.276	1.775e-5	-7.684e-6
-0.270	1.871e-5	-7.692e-6
-0.264	1.960e-5	-7.698e-6
-0.258	2.045e-5	-7.701e-6
-0.252	2.123e-5	-7.688e-6
-0.246	2.192e-5	-7.693e-6
-0.240	2.253e-5	-7.691e-6
-0.234	2.312e-5	-7.705e-6
-0.228	2.370e-5	-7.693e-6
-0.222	2.420e-5	-7.699e-6
-0.216	2.466e-5	-7.701e-6
-0.210	2.511e-5	-7.702e-6
-0.204	2.555e-5	-7.709e-6
-0.198	2.587e-5	-7.697e-6
-0.192	2.622e-5	-7.692e-6
-0.186	2.654e-5	-7.698e-6
-0.180	2.686e-5	-7.695e-6
-0.174	2.711e-5	-7.691e-6
-0.168	2.734e-5	-7.700e-6
-0.162	2.756e-5	-7.695e-6
-0.156	2.780e-5	-7.703e-6
-0.150	2.803e-5	-7.693e-6
-0.144	2.825e-5	-7.695e-6
-0.138	2.848e-5	-7.690e-6
-0.132	2.872e-5	-7.699e-6
-0.126	2.894e-5	-7.703e-6
-0.120	2.914e-5	-7.697e-6
-0.114	2.934e-5	-7.698e-6
-0.108	2.959e-5	-7.707e-6
-0.102	2.984e-5	-7.701e-6
-0.096	2.999e-5	-7.711e-6
-0.090	3.020e-5	-7.704e-6
-0.084	3.050e-5	-7.689e-6
-0.078	3.077e-5	-7.681e-6
-0.072	3.098e-5	-7.675e-6
-0.066	3.121e-5	-7.668e-6
-0.060	3.150e-5	-7.677e-6
-0.054	3.178e-5	-7.678e-6
-0.048	3.205e-5	-7.674e-6
-0.042	3.230e-5	-7.680e-6
-0.036	3.253e-5	-7.675e-6
-0.030	3.274e-5	-7.681e-6
-0.024	3.297e-5	-7.685e-6
-0.018	3.327e-5	-7.684e-6
-0.012	3.357e-5	-7.689e-6
-0.006	3.387e-5	-7.690e-6
-0.000	3.431e-5	-7.671e-6
0.006	3.455e-5	-7.680e-6
0.012	3.487e-5	-7.675e-6
0.018	3.520e-5	-7.677e-6
0.024	3.555e-5	-7.677e-6
0.030	3.592e-5	-7.674e-6
0.036	3.633e-5	-7.676e-6
0.042	3.675e-5	-7.680e-6
0.048	3.718e-5	-7.681e-6
0.054	3.764e-5	-7.683e-6
0.060	3.809e-5	-7.680e-6
0.066	3.856e-5	-7.686e-6
0.072	3.904e-5	-7.686e-6
0.078	3.954e-5	-7.685e-6
0.084	4.005e-5	-7.691e-6
0.090	4.051e-5	-7.686e-6
0.096	4.084e-5	-7.677e-6
0.102	4.126e-5	-7.675e-6
0.108	4.166e-5	-7.679e-6
0.114	4.195e-5	-7.684e-6
0.120	4.222e-5	-7.680e-6
0.126	4.238e-5	-7.680e-6
0.132	4.239e-5	-7.680e-6
0.138	4.233e-5	-7.681e-6
0.144	4.223e-5	-7.687e-6
0.150	4.208e-5	-7.677e-6
0.156	4.198e-5	-7.677e-6
0.162	4.189e-5	-7.675e-6
0.168	4.179e-5	-7.688e-6
0.174	4.177e-5	-7.678e-6
0.180	4.183e-5	-7.683e-6
0.186	4.191e-5	-7.685e-6
0.192	4.203e-5	-7.673e-6
0.198	4.227e-5	-7.688e-6
0.204	4.255e-5	-7.681e-6
0.210	4.289e-5	-7.683e-6
0.216	4.321e-5	-7.678e-6
0.222	4.357e-5	-7.676e-6
0.228	4.397e-5	-7.678e-6
0.234	4.432e-5	-7.684e-6
0.240	4.473e-5	-7.680e-6
0.246	4.519e-5	-7.684e-6
0.252	4.567e-5	-7.682e-6
0.258	4.609e-5	-7.677e-6
0.264	4.648e-5	-7.688e-6
0.270	4.687e-5	-7.681e-6
0.276	4.723e-5	-7.680e-6
0.282	4.751e-5	-7.688e-6
0.288	4.774e-5	-7.704e-6
0.294	4.796e-5	-7.692e-6
0.300	4.812e-5	-7.694e-6
0.306	4.819e-5	-7.699e-6
0.312	4.822e-5	-7.686e-6
0.318	4.822e-5	-7.683e-6
0.324	4.819e-5	-7.682e-6
0.330	4.806e-5	-7.692e-6
0.336	4.784e-5	-7.682e-6
0.342	4.772e-5	-7.699e-6
0.348	4.755e-5	-7.687e-6
0.354	4.725e-5	-7.688e-6
0.360	4.694e-5	-7.681e-6
0.366	4.666e-5	-7.689e-6
0.372	4.642e-5	-7.688e-6
0.378	4.614e-5	-7.685e-6
0.384	4.588e-5	-7.687e-6
0.390	4.564e-5	-7.669e-6
0.396	4.540e-5	-7.684e-6
0.402	4.515e-5	-7.701e-6
0.408	4.491e-5	-7.690e-6
0.414	4.482e-5	-7.677e-6
0.420	4.465e-5	-7.686e-6
0.426	4.447e-5	-7.682e-6
0.432	4.432e-5	-7.684e-6
0.438	4.422e-5	-7.680e-6
0.444	4.422e-5	-7.684e-6
0.450	4.422e-5	-7.697e-6
0.456	4.425e-5	-7.685e-6
0.462	4.432e-5	-7.691e-6
0.468	4.440e-5	-7.686e-6
0.474	4.444e-5	-7.678e-6
0.480	4.453e-5	-7.683e-6
0.486	4.470e-5	-7.689e-6
0.492	4.487e-5	-7.690e-6
0.498	4.500e-5	-7.694e-6
0.504	4.516e-5	-7.686e-6
0.510	4.538e-5	-7.690e-6
0.516	4.571e-5	-7.679e-6
0.522	4.589e-5	-7.694e-6
0.528	4.614e-5	-7.683e-6
0.534	4.642e-5	-7.691e-6
0.540	4.673e-5	-7.695e-6
0.546	4.705e-5	-7.688e-6
0.552	4.739e-5	-7.695e-6
0.558	4.778e-5	-7.698e-6
0.564	4.825e-5	-7.705e-6
0.570	4.863e-5	-7.700e-6
0.576	4.906e-5	-7.714e-6
0.582	4.957e-5	-7.700e-6
0.588	5.009e-5	-7.702e-6
0.594	5.058e-5	-7.687e-6
0.600	5.112e-5	-7.685e-6
0.606	5.172e-5	-7.688e-6
0.612	5.235e-5	-7.695e-6
0.618	5.301e-5	-7.689e-6
0.624	5.359e-5	-7.686e-6
0.630	5.427e-5	-7.694e-6
0.636	5.496e-5	-7.692e-6
0.642	5.558e-5	-7.695e-6
0.648	5.629e-5	-7.693e-6
0.654	5.706e-5	-7.700e-6
0.660	5.788e-5	-7.699e-6
0.666	5.867e-5	-7.695e-6
0.672	5.945e-5	-7.700e-6
0.678	6.031e-5	-7.692e-6
0.684	6.124e-5	-7.688e-6
0.690	6.208e-5	-7.697e-6
0.696	6.292e-5	-7.703e-6
0.702	6.381e-5	-7.711e-6
0.708	6.471e-5	-7.708e-6
0.714	6.553e-5	-7.704e-6
0.720	6.644e-5	-7.704e-6
0.726	6.739e-5	-7.710e-6
0.732	6.830e-5	-7.702e-6
0.738	6.919e-5	-7.709e-6
0.744	7.016e-5	-7.682e-6
0.750	7.119e-5	-7.660e-6
0.756	7.229e-5	-7.662e-6
0.762	7.337e-5	-7.673e-6
0.768	7.448e-5	-7.678e-6
0.774	7.563e-5	-7.677e-6
0.780	7.682e-5	-7.676e-6
0.786	7.805e-5	-7.679e-6
0.792	7.926e-5	-7.682e-6
0.798	8.059e-5	-7.671e-6
0.804	8.201e-5	-7.678e-6
0.810	8.337e-5	-7.685e-6
0.816	8.470e-5	-7.680e-6
0.822	8.629e-5	-7.676e-6
0.828	8.773e-5	-7.685e-6
0.834	8.923e-5	-7.682e-6
0.840	9.076e-5	-7.673e-6
0.846	9.239e-5	-7.678e-6
0.852	9.411e-5	-7.690e-6
0.858	9.588e-5	-7.683e-6
0.864	9.781e-5	-7.691e-6
0.870	9.991e-5	-7.698e-6
0.876	1.021e-4	-7.690e-6
0.882	1.043e-4	-7.691e-6
0.888	1.067e-4	-7.703e-6
0.894	1.093e-4	-7.692e-6
0.900	1.067e-4	-7.704e-6
0.894	6.916e-5	-7.712e-6
0.888	5.637e-5	-7.708e-6
0.882	4.748e-5	-7.701e-6
0.876	4.045e-5	-7.706e-6
0.870	3.475e-5	-7.698e-6
0.864	2.993e-5	-7.713e-6
0.858	2.571e-5	-7.708e-6
0.852	2.200e-5	-7.690e-6
0.846	1.885e-5	-7.705e-6
0.840	1.603e-5	-7.692e-6
0.834	1.358e-5	-7.702e-6
0.828	1.128e-5	-7.689e-6
0.822	9.208e-6	-7.703e-6
0.816	7.191e-6	-7.702e-6
0.810	5.547e-6	-7.715e-6
0.804	4.006e-6	-7.701e-6
0.798	2.676e-6	-7.697e-6
0.792	1.408e-6	-7.683e-6
0.786	2.010e-7	-7.713e-6
0.780	-9.662e-7	-7.695e-6
0.774	-1.941e-6	-7.700e-6
0.768	-2.911e-6	-7.694e-6
0.762	-3.779e-6	-7.688e-6
0.756	-4.581e-6	-7.687e-6
0.750	-5.263e-6	-7.694e-6
0.744	-6.001e-6	-7.688e-6
0.738	-6.604e-6	-7.676e-6
0.732	-7.213e-6	-7.681e-6
0.726	-7.713e-6	-7.674e-6
0.720	-8.217e-6	-7.680e-6
0.714	-8.694e-6	-7.723e-6
0.708	-9.165e-6	-7.763e-6
0.702	-9.546e-6	-7.769e-6
0.696	-9.976e-6	-7.785e-6
0.690	-1.037e-5	-7.772e-6
0.684	-1.076e-5	-7.772e-6
0.678	-1.104e-5	-7.766e-6
0.672	-1.133e-5	-7.768e-6
0.666	-1.164e-5	-7.763e-6
0.660	-1.195e-5	-7.766e-6
0.654	-1.220e-5	-7.773e-6
0.648	-1.247e-5	-7.765e-6
0.642	-1.268e-5	-7.769e-6
0.636	-1.290e-5	-7.760e-6
0.630	-1.308e-5	-7.758e-6
0.624	-1.328e-5	-7.768e-6
0.618	-1.350e-5	-7.763e-6
0.612	-1.377e-5	-7.769e-6
0.606	-1.389e-5	-7.769e-6
0.600	-1.405e-5	-7.767e-6
0.594	-1.423e-5	-7.767e-6
0.588	-1.439e-5	-7.767e-6
0.582	-1.449e-5	-7.770e-6
0.576	-1.464e-5	-7.769e-6
0.570	-1.480e-5	-7.775e-6
0.564	-1.496e-5	-7.772e-6
0.558	-1.506e-5	-7.769e-6
0.552	-1.521e-5	-7.772e-6
0.546	-1.536e-5	-7.774e-6
0.540	-1.549e-5	-7.769e-6
0.534	-1.558e-5	-7.764e-6
0.528	-1.572e-5	-7.766e-6
0.522	-1.587e-5	-7.772e-6
0.516	-1.602e-5	-7.764e-6
0.510	-1.615e-5	-7.757e-6
0.504	-1.625e-5	-7.769e-6
0.498	-1.638e-5	-7.768e-6
0.492	-1.651e-5	-7.767e-6
0.486	-1.656e-5	-7.767e-6
0.480	-1.668e-5	-7.759e-6
0.474	-1.680e-5	-7.764e-6
0.468	-1.691e-5	-7.770e-6
0.462	-1.700e-5	-7.766e-6
0.456	-1.709e-5	-7.757e-6
0.450	-1.719e-5	-7.763e-6
0.444	-1.730e-5	-7.756e-6
0.438	-1.736e-5	-7.761e-6
0.432	-1.745e-5	-7.760e-6
0.426	-1.755e-5	-7.758e-6
0.420	-1.767e-5	-7.753e-6
0.414	-1.773e-5	-7.755e-6
0.408	-1.795e-5	-7.756e-6
0.402	-1.801e-5	-7.756e-6
0.396	-1.811e-5	-7.753e-6
0.390	-1.816e-5	-7.757e-6
0.384	-1.826e-5	-7.752e-6
0.378	-1.836e-5	-7.763e-6
0.372	-1.848e-5	-7.764e-6
0.366	-1.855e-5	-7.758e-6
0.360	-1.866e-5	-7.763e-6
0.354	-1.878e-5	-7.762e-6
0.348	-1.889e-5	-7.758e-6
0.342	-1.896e-5	-7.770e-6
0.336	-1.909e-5	-7.767e-6
0.330	-1.916e-5	-7.767e-6
0.324	-1.931e-5	-7.757e-6
0.318	-1.940e-5	-7.772e-6
0.312	-1.952e-5	-7.775e-6
0.306	-1.967e-5	-7.769e-6
0.300	-1.979e-5	-7.769e-6
0.294	-1.987e-5	-7.774e-6
0.288	-2.001e-5	-7.768e-6
0.282	-2.012e-5	-7.775e-6
0.276	-2.025e-5	-7.770e-6
0.270	-2.035e-5	-7.772e-6
0.264	-2.049e-5	-7.772e-6
0.258	-2.062e-5	-7.768e-6
0.252	-2.079e-5	-7.760e-6
0.246	-2.089e-5	-7.746e-6
0.240	-2.105e-5	-7.759e-6
0.234	-2.120e-5	-7.765e-6
0.228	-2.136e-5	-7.754e-6
0.222	-2.147e-5	-7.754e-6
0.216	-2.161e-5	-7.754e-6
0.210	-2.176e-5	-7.770e-6
0.204	-2.202e-5	-7.759e-6
0.198	-2.210e-5	-7.754e-6
0.192	-2.225e-5	-7.756e-6
0.186	-2.243e-5	-7.750e-6
0.180	-2.262e-5	-7.756e-6
0.174	-2.274e-5	-7.751e-6
0.168	-2.289e-5	-7.753e-6
0.162	-2.305e-5	-7.760e-6
0.156	-2.327e-5	-7.755e-6
0.150	-2.345e-5	-7.751e-6
0.144	-2.363e-5	-7.753e-6
0.138	-2.381e-5	-7.763e-6
0.132	-2.402e-5	-7.767e-6
0.126	-2.418e-5	-7.758e-6
0.120	-2.438e-5	-7.747e-6
0.114	-2.457e-5	-7.753e-6
0.108	-2.478e-5	-7.761e-6
0.102	-2.499e-5	-7.751e-6
0.096	-2.516e-5	-7.758e-6
0.090	-2.537e-5	-7.765e-6
0.084	-2.559e-5	-7.738e-6
0.078	-2.577e-5	-7.756e-6
0.072	-2.594e-5	-7.748e-6
0.066	-2.612e-5	-7.757e-6
0.060	-2.632e-5	-7.751e-6
0.054	-2.649e-5	-7.743e-6
0.048	-2.668e-5	-7.742e-6
0.042	-2.688e-5	-7.748e-6
0.036	-2.708e-5	-7.752e-6
0.030	-2.723e-5	-7.747e-6
0.024	-2.737e-5	-7.745e-6
0.018	-2.755e-5	-7.742e-6
0.012	-2.773e-5	-7.741e-6
0.006	-2.787e-5	-7.751e-6
0.000	-2.819e-5	-7.759e-6
-0.006	-2.827e-5	-7.758e-6
-0.012	-2.840e-5	-7.762e-6
-0.018	-2.849e-5	-7.760e-6
-0.024	-2.857e-5	-7.765e-6
-0.030	-2.865e-5	-7.769e-6
-0.036	-2.873e-5	-7.757e-6
-0.042	-2.873e-5	-7.756e-6
-0.048	-2.875e-5	-7.761e-6
-0.054	-2.875e-5	-7.760e-6
-0.060	-2.876e-5	-7.761e-6
-0.066	-2.870e-5	-7.763e-6
-0.072	-2.864e-5	-7.765e-6
-0.078	-2.857e-5	-7.759e-6
-0.084	-2.851e-5	-7.766e-6
-0.090	-2.839e-5	-7.763e-6
-0.096	-2.828e-5	-7.762e-6
-0.102	-2.817e-5	-7.757e-6
-0.108	-2.806e-5	-7.745e-6
-0.114	-2.794e-5	-7.752e-6
-0.120	-2.783e-5	-7.744e-6
-0.126	-2.772e-5	-7.749e-6
-0.132	-2.762e-5	-7.745e-6
-0.138	-2.749e-5	-7.738e-6
-0.144	-2.739e-5	-7.743e-6
-0.150	-2.733e-5	-7.746e-6
-0.156	-2.730e-5	-7.750e-6
-0.162	-2.724e-5	-7.743e-6
-0.168	-2.720e-5	-7.749e-6
-0.174	-2.720e-5	-7.750e-6
-0.180	-2.724e-5	-7.749e-6
-0.186	-2.729e-5	-7.752e-6
-0.192	-2.741e-5	-7.750e-6
-0.198	-2.755e-5	-7.754e-6
-0.204	-2.775e-5	-7.751e-6
-0.210	-2.799e-5	-7.769e-6
-0.216	-2.826e-5	-7.756e-6
-0.222	-2.861e-5	-7.769e-6
-0.228	-2.903e-5	-7.775e-6
-0.234	-2.945e-5	-7.769e-6
-0.240	-2.993e-5	-7.765e-6
-0.246	-3.045e-5	-7.769e-6
-0.252	-3.111e-5	-7.770e-6
-0.258	-3.174e-5	-7.757e-6
-0.264	-3.246e-5	-7.758e-6
-0.270	-3.324e-5	-7.755e-6
-0.276	-3.411e-5	-7.758e-6
-0.282	-3.502e-5	-7.756e-6
-0.288	-3.598e-5	-7.752e-6
-0.294	-3.701e-5	-7.747e-6
-0.300	-3.814e-5	-7.762e-6
-0.306	-3.929e-5	-7.742e-6
-0.312	-4.056e-5	-7.753e-6
-0.318	-4.190e-5	-7.750e-6
-0.324	-4.336e-5	-7.754e-6
-0.330	-4.486e-5	-7.747e-6
-0.336	-4.644e-5	-7.742e-6
-0.342	-4.815e-5	-7.766e-6
-0.348	-4.995e-5	-7.765e-6
-0.354	-5.187e-5	-7.770e-6
-0.360	-5.391e-5	-7.764e-6
-0.366	-5.607e-5	-7.758e-6
-0.372	-5.842e-5	-7.760e-6
-0.378	-6.082e-5	-7.758e-6
-0.384	-6.335e-5	-7.753e-6
-0.390	-6.604e-5	-7.744e-6
-0.396	-6.889e-5	-7.758e-6
-0.402	-7.186e-5	-7.746e-6
-0.408	-7.498e-5	-7.745e-6
-0.414	-7.833e-5	-7.742e-6
-0.420	-8.179e-5	-7.741e-6
-0.426	-8.537e-5	-7.730e-6
-0.432	-8.910e-5	-7.784e-6
-0.438	-9.297e-5	-7.770e-6
-0.444	-9.702e-5	-7.763e-6
-0.450	-1.014e-4	-7.758e-6
-0.456	-1.055e-4	-7.750e-6
-0.462	-1.098e-4	-7.760e-6
-0.468	-1.144e-4	-7.759e-6
-0.474	-1.191e-4	-7.752e-6
-0.480	-1.238e-4	-7.745e-6
-0.486	-1.287e-4	-7.772e-6
-0.492	-1.338e-4	-7.756e-6
-0.498	-1.391e-4	-7.757e-6
-0.504	-1.443e-4	-7.736e-6
-0.510	-1.499e-4	-7.748e-6
-0.516	-1.556e-4	-7.735e-6
-0.522	-1.614e-4	-7.735e-6
-0.528	-1.674e-4	-7.768e-6
-0.534	-1.736e-4	-7.769e-6
-0.540	-1.798e-4	-7.755e-6
-0.546	-1.862e-4	-7.761e-6
-0.552	-1.929e-4	-7.753e-6
-0.558	-1.996e-4	-7.734e-6
-0.564	-2.066e-4	-7.763e-6
-0.570	-2.138e-4	-7.754e-6
-0.576	-2.210e-4	-7.740e-6
-0.582	-2.285e-4	-7.750e-6
-0.588	-2.364e-4	-7.732e-6
-0.594	-2.443e-4	-7.737e-6
-0.599	-2.510e-4	-7.753e-6