File: data/cv/0622/2000 rpm CV.txt
June 22, 2016   17:42:48
Cyclic Voltammetry
File: c:\users\potentio2\desktop\suda\20160622\2000 rpm cv.txt
Data Source:  Experiment
Instrument Model:  CHI7082E
Header:
Note:

Init E (V) = 0
High E (V) = 0.9
Low E (V) = -0.6
Init P/N = P
Scan Rate (V/s) = 0.01
Segment = 6
Sample Interval (V) = 0.001
Quiet Time (sec) = 2
Sensitivity (A/V) = 0.001
Sens 2 (A/V) = 0.001

Segment 1:

Segment 2:

Segment 3:
Ep = 0.175V
ip = 1.464e-5A
Ah = 1.223e-4C

Segment 4:
Ep = 0.000V
ip = -8.158e-7A
Ah = -9.230e-6C

Segment 5:
Ep = 0.183V
ip = 1.432e-5A
Ah = 1.117e-4C

Segment 6:

Current 2:

Segment 1:

Segment 2:
Ep = 0.087V
ip = -1.915e-8A
Ah = -2.458e-8C

Segment 3:
Segment 4:
Ep = -0.073V
ip = -2.929e-8A
Ah = -9.015e-8C

Segment 5:
Segment 6:
Ep = -0.454V
ip = -3.884e-8A
Ah = -3.215e-8C

Potential/V	i1/A	i2/A

0.000	-1.024e-5	-7.581e-6
0.006	3.118e-6	-7.527e-6
0.012	8.682e-6	-7.533e-6
0.018	1.229e-5	-7.529e-6
0.024	1.473e-5	-7.539e-6
0.030	1.649e-5	-7.541e-6
0.036	1.785e-5	-7.556e-6
0.042	1.889e-5	-7.556e-6
0.048	1.967e-5	-7.552e-6
0.054	2.034e-5	-7.565e-6
0.060	2.086e-5	-7.561e-6
0.066	2.120e-5	-7.562e-6
0.072	2.146e-5	-7.558e-6
0.078	2.171e-5	-7.567e-6
0.084	2.190e-5	-7.569e-6
0.090	2.206e-5	-7.578e-6
0.096	2.219e-5	-7.577e-6
0.102	2.235e-5	-7.566e-6
0.108	2.250e-5	-7.571e-6
0.114	2.253e-5	-7.591e-6
0.120	2.254e-5	-7.575e-6
0.126	2.263e-5	-7.583e-6
0.132	2.269e-5	-7.587e-6
0.138	2.270e-5	-7.589e-6
0.144	2.272e-5	-7.590e-6
0.150	2.278e-5	-7.593e-6
0.156	2.283e-5	-7.588e-6
0.162	2.277e-5	-7.595e-6
0.168	2.274e-5	-7.587e-6
0.174	2.278e-5	-7.597e-6
0.180	2.279e-5	-7.595e-6
0.186	2.280e-5	-7.594e-6
0.192	2.278e-5	-7.593e-6
0.198	2.278e-5	-7.594e-6
0.204	2.280e-5	-7.605e-6
0.210	2.283e-5	-7.598e-6
0.216	2.279e-5	-7.592e-6
0.222	2.280e-5	-7.592e-6
0.228	2.284e-5	-7.592e-6
0.234	2.281e-5	-7.596e-6
0.240	2.278e-5	-7.606e-6
0.246	2.283e-5	-7.604e-6
0.252	2.289e-5	-7.598e-6
0.258	2.290e-5	-7.599e-6
0.264	2.289e-5	-7.614e-6
0.270	2.295e-5	-7.608e-6
0.276	2.303e-5	-7.607e-6
0.282	2.302e-5	-7.608e-6
0.288	2.304e-5	-7.611e-6
0.294	2.308e-5	-7.620e-6
0.300	2.313e-5	-7.611e-6
0.306	2.313e-5	-7.622e-6
0.312	2.317e-5	-7.616e-6
0.318	2.322e-5	-7.620e-6
0.324	2.330e-5	-7.617e-6
0.330	2.335e-5	-7.621e-6
0.336	2.336e-5	-7.627e-6
0.342	2.345e-5	-7.624e-6
0.348	2.356e-5	-7.627e-6
0.354	2.361e-5	-7.624e-6
0.360	2.367e-5	-7.622e-6
0.366	2.376e-5	-7.619e-6
0.372	2.386e-5	-7.617e-6
0.378	2.394e-5	-7.622e-6
0.384	2.398e-5	-7.622e-6
0.390	2.410e-5	-7.627e-6
0.396	2.422e-5	-7.627e-6
0.402	2.429e-5	-7.632e-6
0.408	2.435e-5	-7.630e-6
0.414	2.455e-5	-7.632e-6
0.420	2.468e-5	-7.633e-6
0.426	2.478e-5	-7.633e-6
0.432	2.486e-5	-7.636e-6
0.438	2.500e-5	-7.639e-6
0.444	2.515e-5	-7.642e-6
0.450	2.524e-5	-7.635e-6
0.456	2.531e-5	-7.638e-6
0.462	2.547e-5	-7.628e-6
0.468	2.561e-5	-7.624e-6
0.474	2.570e-5	-7.635e-6
0.480	2.582e-5	-7.636e-6
0.486	2.599e-5	-7.636e-6
0.492	2.619e-5	-7.638e-6
0.498	2.632e-5	-7.642e-6
0.504	2.645e-5	-7.643e-6
0.510	2.664e-5	-7.646e-6
0.516	2.682e-5	-7.642e-6
0.522	2.694e-5	-7.640e-6
0.528	2.712e-5	-7.638e-6
0.534	2.740e-5	-7.636e-6
0.540	2.756e-5	-7.639e-6
0.546	2.775e-5	-7.643e-6
0.552	2.801e-5	-7.640e-6
0.558	2.834e-5	-7.649e-6
0.564	2.868e-5	-7.658e-6
0.570	2.894e-5	-7.659e-6
0.576	2.919e-5	-7.654e-6
0.582	2.958e-5	-7.649e-6
0.588	2.999e-5	-7.655e-6
0.594	3.032e-5	-7.647e-6
0.600	3.070e-5	-7.633e-6
0.606	3.115e-5	-7.631e-6
0.612	3.161e-5	-7.630e-6
0.618	3.206e-5	-7.618e-6
0.624	3.251e-5	-7.627e-6
0.630	3.303e-5	-7.631e-6
0.636	3.357e-5	-7.621e-6
0.642	3.404e-5	-7.635e-6
0.648	3.453e-5	-7.637e-6
0.654	3.515e-5	-7.637e-6
0.660	3.577e-5	-7.638e-6
0.666	3.635e-5	-7.635e-6
0.672	3.659e-5	-7.630e-6
0.678	3.721e-5	-7.648e-6
0.684	3.781e-5	-7.635e-6
0.690	3.836e-5	-7.646e-6
0.696	3.894e-5	-7.646e-6
0.702	3.962e-5	-7.649e-6
0.708	4.035e-5	-7.646e-6
0.714	4.101e-5	-7.633e-6
0.720	4.171e-5	-7.632e-6
0.726	4.246e-5	-7.643e-6
0.732	4.327e-5	-7.646e-6
0.738	4.398e-5	-7.655e-6
0.744	4.477e-5	-7.656e-6
0.750	4.567e-5	-7.652e-6
0.756	4.661e-5	-7.647e-6
0.762	4.755e-5	-7.653e-6
0.768	4.856e-5	-7.664e-6
0.774	4.958e-5	-7.663e-6
0.780	5.065e-5	-7.666e-6
0.786	5.173e-5	-7.644e-6
0.792	5.288e-5	-7.659e-6
0.798	5.411e-5	-7.665e-6
0.804	5.541e-5	-7.657e-6
0.810	5.663e-5	-7.665e-6
0.816	5.793e-5	-7.668e-6
0.822	5.950e-5	-7.663e-6
0.828	6.102e-5	-7.650e-6
0.834	6.264e-5	-7.660e-6
0.840	6.427e-5	-7.674e-6
0.846	6.602e-5	-7.671e-6
0.852	6.785e-5	-7.667e-6
0.858	6.965e-5	-7.675e-6
0.864	7.152e-5	-7.630e-6
0.870	7.363e-5	-7.649e-6
0.876	7.568e-5	-7.638e-6
0.882	7.772e-5	-7.639e-6
0.888	7.979e-5	-7.642e-6
0.894	8.198e-5	-7.644e-6
0.900	7.807e-5	-7.658e-6
0.894	4.586e-5	-7.674e-6
0.888	3.662e-5	-7.657e-6
0.882	3.013e-5	-7.674e-6
0.876	2.506e-5	-7.673e-6
0.870	2.102e-5	-7.667e-6
0.864	1.773e-5	-7.672e-6
0.858	1.488e-5	-7.672e-6
0.852	1.249e-5	-7.658e-6
0.846	1.042e-5	-7.665e-6
0.840	8.596e-6	-7.669e-6
0.834	6.996e-6	-7.655e-6
0.828	5.522e-6	-7.657e-6
0.822	4.291e-6	-7.657e-6
0.816	3.020e-6	-7.658e-6
0.810	1.982e-6	-7.657e-6
0.804	9.932e-7	-7.658e-6
0.798	5.629e-8	-7.670e-6
0.792	-7.773e-7	-7.656e-6
0.786	-1.552e-6	-7.652e-6
0.780	-2.272e-6	-7.650e-6
0.774	-2.856e-6	-7.659e-6
0.768	-3.470e-6	-7.660e-6
0.762	-3.992e-6	-7.662e-6
0.756	-4.485e-6	-7.660e-6
0.750	-4.905e-6	-7.661e-6
0.744	-5.362e-6	-7.654e-6
0.738	-5.766e-6	-7.657e-6
0.732	-6.168e-6	-7.653e-6
0.726	-6.460e-6	-7.654e-6
0.720	-6.788e-6	-7.642e-6
0.714	-7.129e-6	-7.655e-6
0.708	-7.437e-6	-7.650e-6
0.702	-7.658e-6	-7.658e-6
0.696	-7.922e-6	-7.658e-6
0.690	-8.121e-6	-7.662e-6
0.684	-8.371e-6	-7.663e-6
0.678	-8.527e-6	-7.676e-6
0.672	-8.727e-6	-7.693e-6
0.666	-8.942e-6	-7.721e-6
0.660	-9.126e-6	-7.731e-6
0.654	-9.240e-6	-7.744e-6
0.648	-9.402e-6	-7.755e-6
0.642	-9.552e-6	-7.756e-6
0.636	-9.695e-6	-7.747e-6
0.630	-9.800e-6	-7.755e-6
0.624	-9.960e-6	-7.746e-6
0.618	-1.011e-5	-7.750e-6
0.612	-1.032e-5	-7.758e-6
0.606	-1.039e-5	-7.758e-6
0.600	-1.052e-5	-7.753e-6
0.594	-1.066e-5	-7.758e-6
0.588	-1.078e-5	-7.751e-6
0.582	-1.088e-5	-7.753e-6
0.576	-1.101e-5	-7.753e-6
0.570	-1.111e-5	-7.741e-6
0.564	-1.124e-5	-7.759e-6
0.558	-1.127e-5	-7.759e-6
0.552	-1.141e-5	-7.757e-6
0.546	-1.149e-5	-7.760e-6
0.540	-1.158e-5	-7.752e-6
0.534	-1.159e-5	-7.744e-6
0.528	-1.175e-5	-7.742e-6
0.522	-1.185e-5	-7.740e-6
0.516	-1.197e-5	-7.743e-6
0.510	-1.202e-5	-7.751e-6
0.504	-1.212e-5	-7.743e-6
0.498	-1.221e-5	-7.744e-6
0.492	-1.232e-5	-7.757e-6
0.486	-1.232e-5	-7.743e-6
0.480	-1.243e-5	-7.746e-6
0.474	-1.250e-5	-7.741e-6
0.468	-1.261e-5	-7.751e-6
0.462	-1.265e-5	-7.759e-6
0.456	-1.273e-5	-7.750e-6
0.450	-1.282e-5	-7.754e-6
0.444	-1.288e-5	-7.755e-6
0.438	-1.291e-5	-7.755e-6
0.432	-1.298e-5	-7.746e-6
0.426	-1.308e-5	-7.749e-6
0.420	-1.318e-5	-7.745e-6
0.414	-1.318e-5	-7.755e-6
0.408	-1.335e-5	-7.756e-6
0.402	-1.339e-5	-7.764e-6
0.396	-1.346e-5	-7.742e-6
0.390	-1.347e-5	-7.744e-6
0.384	-1.351e-5	-7.745e-6
0.378	-1.360e-5	-7.747e-6
0.372	-1.370e-5	-7.750e-6
0.366	-1.375e-5	-7.756e-6
0.360	-1.384e-5	-7.753e-6
0.354	-1.388e-5	-7.756e-6
0.348	-1.395e-5	-7.756e-6
0.342	-1.396e-5	-7.755e-6
0.336	-1.402e-5	-7.749e-6
0.330	-1.408e-5	-7.755e-6
0.324	-1.419e-5	-7.752e-6
0.318	-1.424e-5	-7.761e-6
0.312	-1.435e-5	-7.754e-6
0.306	-1.446e-5	-7.749e-6
0.300	-1.456e-5	-7.753e-6
0.294	-1.461e-5	-7.752e-6
0.288	-1.469e-5	-7.758e-6
0.282	-1.477e-5	-7.748e-6
0.276	-1.490e-5	-7.747e-6
0.270	-1.497e-5	-7.758e-6
0.264	-1.508e-5	-7.757e-6
0.258	-1.520e-5	-7.752e-6
0.252	-1.532e-5	-7.753e-6
0.246	-1.538e-5	-7.763e-6
0.240	-1.549e-5	-7.746e-6
0.234	-1.561e-5	-7.745e-6
0.228	-1.575e-5	-7.752e-6
0.222	-1.584e-5	-7.745e-6
0.216	-1.599e-5	-7.754e-6
0.210	-1.612e-5	-7.741e-6
0.204	-1.635e-5	-7.749e-6
0.198	-1.639e-5	-7.763e-6
0.192	-1.651e-5	-7.746e-6
0.186	-1.664e-5	-7.751e-6
0.180	-1.681e-5	-7.754e-6
0.174	-1.689e-5	-7.756e-6
0.168	-1.701e-5	-7.752e-6
0.162	-1.714e-5	-7.745e-6
0.156	-1.732e-5	-7.740e-6
0.150	-1.743e-5	-7.739e-6
0.144	-1.759e-5	-7.740e-6
0.138	-1.775e-5	-7.743e-6
0.132	-1.793e-5	-7.740e-6
0.126	-1.805e-5	-7.738e-6
0.120	-1.821e-5	-7.747e-6
0.114	-1.835e-5	-7.731e-6
0.108	-1.852e-5	-7.747e-6
0.102	-1.868e-5	-7.753e-6
0.096	-1.881e-5	-7.743e-6
0.090	-1.898e-5	-7.752e-6
0.084	-1.918e-5	-7.751e-6
0.078	-1.932e-5	-7.750e-6
0.072	-1.945e-5	-7.751e-6
0.066	-1.962e-5	-7.752e-6
0.060	-1.981e-5	-7.744e-6
0.054	-1.996e-5	-7.753e-6
0.048	-2.014e-5	-7.746e-6
0.042	-2.030e-5	-7.741e-6
0.036	-2.048e-5	-7.749e-6
0.030	-2.058e-5	-7.758e-6
0.024	-2.067e-5	-7.747e-6
0.018	-2.080e-5	-7.747e-6
0.012	-2.093e-5	-7.743e-6
0.006	-2.099e-5	-7.737e-6
0.000	-2.128e-5	-7.746e-6
-0.006	-2.124e-5	-7.747e-6
-0.012	-2.130e-5	-7.749e-6
-0.018	-2.130e-5	-7.737e-6
-0.024	-2.132e-5	-7.752e-6
-0.030	-2.134e-5	-7.748e-6
-0.036	-2.137e-5	-7.750e-6
-0.042	-2.134e-5	-7.748e-6
-0.048	-2.132e-5	-7.767e-6
-0.054	-2.131e-5	-7.755e-6
-0.060	-2.130e-5	-7.758e-6
-0.066	-2.123e-5	-7.748e-6
-0.072	-2.117e-5	-7.749e-6
-0.078	-2.111e-5	-7.747e-6
-0.084	-2.110e-5	-7.757e-6
-0.090	-2.102e-5	-7.747e-6
-0.096	-2.098e-5	-7.744e-6
-0.102	-2.096e-5	-7.747e-6
-0.108	-2.096e-5	-7.751e-6
-0.114	-2.093e-5	-7.759e-6
-0.120	-2.094e-5	-7.761e-6
-0.126	-2.097e-5	-7.754e-6
-0.132	-2.106e-5	-7.749e-6
-0.138	-2.113e-5	-7.749e-6
-0.144	-2.126e-5	-7.748e-6
-0.150	-2.145e-5	-7.757e-6
-0.156	-2.171e-5	-7.741e-6
-0.162	-2.198e-5	-7.750e-6
-0.168	-2.235e-5	-7.738e-6
-0.174	-2.278e-5	-7.739e-6
-0.180	-2.330e-5	-7.738e-6
-0.186	-2.388e-5	-7.746e-6
-0.192	-2.456e-5	-7.755e-6
-0.198	-2.534e-5	-7.752e-6
-0.204	-2.626e-5	-7.753e-6
-0.210	-2.728e-5	-7.740e-6
-0.216	-2.843e-5	-7.744e-6
-0.222	-2.971e-5	-7.760e-6
-0.228	-3.111e-5	-7.752e-6
-0.234	-3.262e-5	-7.749e-6
-0.240	-3.425e-5	-7.753e-6
-0.246	-3.600e-5	-7.736e-6
-0.252	-3.790e-5	-7.737e-6
-0.258	-3.988e-5	-7.741e-6
-0.264	-4.199e-5	-7.728e-6
-0.270	-4.420e-5	-7.721e-6
-0.276	-4.655e-5	-7.716e-6
-0.282	-4.885e-5	-7.753e-6
-0.288	-5.124e-5	-7.746e-6
-0.294	-5.371e-5	-7.752e-6
-0.300	-5.621e-5	-7.743e-6
-0.306	-5.867e-5	-7.749e-6
-0.312	-6.114e-5	-7.742e-6
-0.318	-6.360e-5	-7.738e-6
-0.324	-6.598e-5	-7.746e-6
-0.330	-6.835e-5	-7.751e-6
-0.336	-7.069e-5	-7.746e-6
-0.342	-7.306e-5	-7.744e-6
-0.348	-7.544e-5	-7.741e-6
-0.354	-7.773e-5	-7.733e-6
-0.360	-8.010e-5	-7.729e-6
-0.366	-8.249e-5	-7.729e-6
-0.372	-8.497e-5	-7.716e-6
-0.378	-8.743e-5	-7.730e-6
-0.384	-8.995e-5	-7.756e-6
-0.390	-9.254e-5	-7.752e-6
-0.396	-9.519e-5	-7.747e-6
-0.402	-9.786e-5	-7.749e-6
-0.408	-1.006e-4	-7.742e-6
-0.414	-1.035e-4	-7.746e-6
-0.420	-1.064e-4	-7.732e-6
-0.426	-1.093e-4	-7.748e-6
-0.432	-1.122e-4	-7.743e-6
-0.438	-1.152e-4	-7.735e-6
-0.444	-1.182e-4	-7.739e-6
-0.450	-1.211e-4	-7.735e-6
-0.456	-1.238e-4	-7.736e-6
-0.462	-1.266e-4	-7.735e-6
-0.468	-1.293e-4	-7.760e-6
-0.474	-1.319e-4	-7.754e-6
-0.480	-1.344e-4	-7.744e-6
-0.486	-1.367e-4	-7.753e-6
-0.492	-1.390e-4	-7.742e-6
-0.498	-1.410e-4	-7.743e-6
-0.504	-1.430e-4	-7.736e-6
-0.510	-1.447e-4	-7.730e-6
-0.516	-1.464e-4	-7.733e-6
-0.522	-1.477e-4	-7.752e-6
-0.528	-1.490e-4	-7.742e-6
-0.534	-1.501e-4	-7.740e-6
-0.540	-1.510e-4	-7.733e-6
-0.546	-1.518e-4	-7.733e-6
-0.552	-1.525e-4	-7.733e-6
-0.558	-1.530e-4	-7.738e-6
-0.564	-1.534e-4	-7.728e-6
-0.570	-1.536e-4	-7.732e-6
-0.576	-1.539e-4	-7.721e-6
-0.582	-1.540e-4	-7.730e-6
-0.588	-1.540e-4	-7.720e-6
-0.594	-1.540e-4	-7.719e-6
-0.600	-1.504e-4	-7.719e-6
-0.594	-1.289e-4	-7.723e-6
-0.588	-1.161e-4	-7.714e-6
-0.582	-1.058e-4	-7.718e-6
-0.576	-9.703e-5	-7.731e-6
-0.570	-8.933e-5	-7.747e-6
-0.564	-8.250e-5	-7.713e-6
-0.558	-7.640e-5	-7.707e-6
-0.552	-7.090e-5	-7.724e-6
-0.546	-6.582e-5	-7.710e-6
-0.540	-6.121e-5	-7.721e-6
-0.534	-5.689e-5	-7.738e-6
-0.528	-5.292e-5	-7.741e-6
-0.522	-4.922e-5	-7.749e-6
-0.516	-4.568e-5	-7.713e-6
-0.510	-4.231e-5	-7.721e-6
-0.504	-3.924e-5	-7.722e-6
-0.498	-3.627e-5	-7.723e-6
-0.492	-3.346e-5	-7.731e-6
-0.486	-3.081e-5	-7.742e-6
-0.480	-2.833e-5	-7.729e-6
-0.474	-2.587e-5	-7.725e-6
-0.468	-2.354e-5	-7.727e-6
-0.462	-2.133e-5	-7.734e-6
-0.456	-1.919e-5	-7.744e-6
-0.450	-1.710e-5	-7.732e-6
-0.444	-1.506e-5	-7.748e-6
-0.438	-1.317e-5	-7.742e-6
-0.432	-1.143e-5	-7.757e-6
-0.426	-9.696e-6	-7.753e-6
-0.420	-7.962e-6	-7.648e-6
-0.414	-6.319e-6	-7.676e-6
-0.408	-4.644e-6	-7.659e-6
-0.402	-3.099e-6	-7.663e-6
-0.396	-1.584e-6	-7.652e-6
-0.390	-1.976e-7	-7.671e-6
-0.384	1.162e-6	-7.669e-6
-0.378	2.419e-6	-7.667e-6
-0.372	3.646e-6	-7.683e-6
-0.366	4.820e-6	-7.689e-6
-0.360	5.922e-6	-7.682e-6
-0.354	7.067e-6	-7.669e-6
-0.348	8.169e-6	-7.685e-6
-0.342	9.190e-6	-7.686e-6
-0.336	1.012e-5	-7.685e-6
-0.330	1.106e-5	-7.678e-6
-0.324	1.198e-5	-7.687e-6
-0.318	1.284e-5	-7.680e-6
-0.312	1.365e-5	-7.681e-6
-0.306	1.442e-5	-7.676e-6
-0.300	1.516e-5	-7.687e-6
-0.294	1.584e-5	-7.680e-6
-0.288	1.651e-5	-7.679e-6
-0.282	1.719e-5	-7.683e-6
-0.276	1.786e-5	-7.686e-6
-0.270	1.845e-5	-7.679e-6
-0.264	1.899e-5	-7.683e-6
-0.258	1.952e-5	-7.686e-6
-0.252	2.004e-5	-7.680e-6
-0.246	2.047e-5	-7.683e-6
-0.240	2.085e-5	-7.678e-6
-0.234	2.126e-5	-7.671e-6
-0.228	2.169e-5	-7.685e-6
-0.222	2.202e-5	-7.674e-6
-0.216	2.227e-5	-7.682e-6
-0.210	2.255e-5	-7.682e-6
-0.204	2.288e-5	-7.679e-6
-0.198	2.314e-5	-7.676e-6
-0.192	2.339e-5	-7.679e-6
-0.186	2.364e-5	-7.685e-6
-0.180	2.391e-5	-7.692e-6
-0.174	2.409e-5	-7.688e-6
-0.168	2.422e-5	-7.690e-6
-0.162	2.441e-5	-7.695e-6
-0.156	2.461e-5	-7.689e-6
-0.150	2.478e-5	-7.693e-6
-0.144	2.492e-5	-7.692e-6
-0.138	2.509e-5	-7.682e-6
-0.132	2.527e-5	-7.693e-6
-0.126	2.537e-5	-7.692e-6
-0.120	2.545e-5	-7.689e-6
-0.114	2.556e-5	-7.688e-6
-0.108	2.568e-5	-7.684e-6
-0.102	2.579e-5	-7.689e-6
-0.096	2.583e-5	-7.684e-6
-0.090	2.591e-5	-7.692e-6
-0.084	2.603e-5	-7.683e-6
-0.078	2.610e-5	-7.683e-6
-0.072	2.608e-5	-7.684e-6
-0.066	2.616e-5	-7.696e-6
-0.060	2.630e-5	-7.693e-6
-0.054	2.640e-5	-7.688e-6
-0.048	2.647e-5	-7.697e-6
-0.042	2.661e-5	-7.691e-6
-0.036	2.676e-5	-7.682e-6
-0.030	2.687e-5	-7.689e-6
-0.024	2.686e-5	-7.690e-6
-0.018	2.693e-5	-7.687e-6
-0.012	2.711e-5	-7.692e-6
-0.006	2.726e-5	-7.694e-6
-0.000	2.767e-5	-7.689e-6
0.006	2.785e-5	-7.691e-6
0.012	2.812e-5	-7.687e-6
0.018	2.850e-5	-7.694e-6
0.024	2.879e-5	-7.699e-6
0.030	2.915e-5	-7.699e-6
0.036	2.953e-5	-7.700e-6
0.042	2.991e-5	-7.701e-6
0.048	3.033e-5	-7.694e-6
0.054	3.085e-5	-7.676e-6
0.060	3.141e-5	-7.671e-6
0.066	3.193e-5	-7.668e-6
0.072	3.247e-5	-7.669e-6
0.078	3.309e-5	-7.684e-6
0.084	3.378e-5	-7.674e-6
0.090	3.447e-5	-7.680e-6
0.096	3.512e-5	-7.669e-6
0.102	3.591e-5	-7.670e-6
0.108	3.657e-5	-7.676e-6
0.114	3.725e-5	-7.677e-6
0.120	3.796e-5	-7.667e-6
0.126	3.877e-5	-7.679e-6
0.132	3.954e-5	-7.682e-6
0.138	4.031e-5	-7.677e-6
0.144	4.107e-5	-7.661e-6
0.150	4.184e-5	-7.678e-6
0.156	4.252e-5	-7.675e-6
0.162	4.303e-5	-7.677e-6
0.168	4.339e-5	-7.677e-6
0.174	4.357e-5	-7.674e-6
0.180	4.345e-5	-7.681e-6
0.186	4.295e-5	-7.675e-6
0.192	4.206e-5	-7.677e-6
0.198	4.100e-5	-7.673e-6
0.204	3.992e-5	-7.684e-6
0.210	3.895e-5	-7.665e-6
0.216	3.806e-5	-7.673e-6
0.222	3.743e-5	-7.673e-6
0.228	3.691e-5	-7.673e-6
0.234	3.644e-5	-7.666e-6
0.240	3.603e-5	-7.675e-6
0.246	3.573e-5	-7.661e-6
0.252	3.546e-5	-7.667e-6
0.258	3.518e-5	-7.676e-6
0.264	3.497e-5	-7.666e-6
0.270	3.483e-5	-7.676e-6
0.276	3.470e-5	-7.671e-6
0.282	3.452e-5	-7.672e-6
0.288	3.430e-5	-7.669e-6
0.294	3.410e-5	-7.678e-6
0.300	3.391e-5	-7.662e-6
0.306	3.369e-5	-7.670e-6
0.312	3.349e-5	-7.671e-6
0.318	3.332e-5	-7.663e-6
0.324	3.318e-5	-7.673e-6
0.330	3.299e-5	-7.667e-6
0.336	3.279e-5	-7.663e-6
0.342	3.262e-5	-7.661e-6
0.348	3.252e-5	-7.663e-6
0.354	3.236e-5	-7.666e-6
0.360	3.219e-5	-7.662e-6
0.366	3.206e-5	-7.670e-6
0.372	3.198e-5	-7.661e-6
0.378	3.185e-5	-7.659e-6
0.384	3.169e-5	-7.662e-6
0.390	3.157e-5	-7.662e-6
0.396	3.147e-5	-7.675e-6
0.402	3.133e-5	-7.657e-6
0.408	3.122e-5	-7.661e-6
0.414	3.121e-5	-7.667e-6
0.420	3.114e-5	-7.661e-6
0.426	3.105e-5	-7.659e-6
0.432	3.096e-5	-7.658e-6
0.438	3.094e-5	-7.661e-6
0.444	3.095e-5	-7.661e-6
0.450	3.091e-5	-7.668e-6
0.456	3.083e-5	-7.679e-6
0.462	3.087e-5	-7.662e-6
0.468	3.092e-5	-7.671e-6
0.474	3.094e-5	-7.665e-6
0.480	3.096e-5	-7.658e-6
0.486	3.103e-5	-7.665e-6
0.492	3.113e-5	-7.665e-6
0.498	3.117e-5	-7.667e-6
0.504	3.128e-5	-7.666e-6
0.510	3.142e-5	-7.663e-6
0.516	3.161e-5	-7.654e-6
0.522	3.176e-5	-7.662e-6
0.528	3.194e-5	-7.668e-6
0.534	3.220e-5	-7.660e-6
0.540	3.248e-5	-7.661e-6
0.546	3.268e-5	-7.664e-6
0.552	3.292e-5	-7.663e-6
0.558	3.325e-5	-7.672e-6
0.564	3.364e-5	-7.670e-6
0.570	3.395e-5	-7.676e-6
0.576	3.424e-5	-7.669e-6
0.582	3.460e-5	-7.663e-6
0.588	3.502e-5	-7.671e-6
0.594	3.537e-5	-7.670e-6
0.600	3.575e-5	-7.674e-6
0.606	3.628e-5	-7.669e-6
0.612	3.681e-5	-7.675e-6
0.618	3.737e-5	-7.674e-6
0.624	3.786e-5	-7.674e-6
0.630	3.843e-5	-7.670e-6
0.636	3.903e-5	-7.676e-6
0.642	3.957e-5	-7.678e-6
0.648	4.012e-5	-7.681e-6
0.654	4.078e-5	-7.671e-6
0.660	4.146e-5	-7.672e-6
0.666	4.210e-5	-7.675e-6
0.672	4.272e-5	-7.678e-6
0.678	4.342e-5	-7.677e-6
0.684	4.408e-5	-7.679e-6
0.690	4.473e-5	-7.687e-6
0.696	4.540e-5	-7.685e-6
0.702	4.615e-5	-7.681e-6
0.708	4.692e-5	-7.681e-6
0.714	4.764e-5	-7.689e-6
0.720	4.842e-5	-7.689e-6
0.726	4.924e-5	-7.693e-6
0.732	5.008e-5	-7.687e-6
0.738	5.090e-5	-7.670e-6
0.744	5.171e-5	-7.676e-6
0.750	5.264e-5	-7.679e-6
0.756	5.356e-5	-7.683e-6
0.762	5.444e-5	-7.696e-6
0.768	5.540e-5	-7.680e-6
0.774	5.640e-5	-7.682e-6
0.780	5.751e-5	-7.689e-6
0.786	5.859e-5	-7.691e-6
0.792	5.970e-5	-7.695e-6
0.798	6.088e-5	-7.689e-6
0.804	6.212e-5	-7.698e-6
0.810	6.329e-5	-7.696e-6
0.816	6.451e-5	-7.698e-6
0.822	6.599e-5	-7.690e-6
0.828	6.745e-5	-7.693e-6
0.834	6.887e-5	-7.697e-6
0.840	7.038e-5	-7.640e-6
0.846	7.193e-5	-7.664e-6
0.852	7.364e-5	-7.666e-6
0.858	7.530e-5	-7.657e-6
0.864	7.706e-5	-7.664e-6
0.870	7.901e-5	-7.679e-6
0.876	8.106e-5	-7.658e-6
0.882	8.308e-5	-7.672e-6
0.888	8.517e-5	-7.673e-6
0.894	8.743e-5	-7.678e-6
0.900	8.353e-5	-7.694e-6
0.894	5.161e-5	-7.694e-6
0.888	4.242e-5	-7.693e-6
0.882	3.568e-5	-7.688e-6
0.876	3.046e-5	-7.684e-6
0.870	2.617e-5	-7.703e-6
0.864	2.257e-5	-7.694e-6
0.858	1.945e-5	-7.700e-6
0.852	1.674e-5	-7.700e-6
0.846	1.449e-5	-7.686e-6
0.840	1.250e-5	-7.682e-6
0.834	1.061e-5	-7.687e-6
0.828	8.847e-6	-7.690e-6
0.822	7.345e-6	-7.680e-6
0.816	5.851e-6	-7.694e-6
0.810	4.598e-6	-7.685e-6
0.804	3.415e-6	-7.687e-6
0.798	2.397e-6	-7.690e-6
0.792	1.463e-6	-7.683e-6
0.786	5.749e-7	-7.693e-6
0.780	-2.832e-7	-7.688e-6
0.774	-9.485e-7	-7.688e-6
0.768	-1.683e-6	-7.692e-6
0.762	-2.301e-6	-7.684e-6
0.756	-2.903e-6	-7.680e-6
0.750	-3.403e-6	-7.686e-6
0.744	-3.908e-6	-7.683e-6
0.738	-4.354e-6	-7.686e-6
0.732	-4.868e-6	-7.683e-6
0.726	-5.269e-6	-7.686e-6
0.720	-5.704e-6	-7.682e-6
0.714	-6.120e-6	-7.685e-6
0.708	-6.488e-6	-7.680e-6
0.702	-6.778e-6	-7.678e-6
0.696	-7.120e-6	-7.675e-6
0.690	-7.442e-6	-7.677e-6
0.684	-7.730e-6	-7.685e-6
0.678	-7.890e-6	-7.676e-6
0.672	-8.109e-6	-7.682e-6
0.666	-8.362e-6	-7.687e-6
0.660	-8.595e-6	-7.710e-6
0.654	-8.780e-6	-7.723e-6
0.648	-8.952e-6	-7.735e-6
0.642	-9.138e-6	-7.761e-6
0.636	-9.304e-6	-7.761e-6
0.630	-9.419e-6	-7.758e-6
0.624	-9.551e-6	-7.758e-6
0.618	-9.711e-6	-7.762e-6
0.612	-9.908e-6	-7.773e-6
0.606	-9.961e-6	-7.769e-6
0.600	-1.011e-5	-7.761e-6
0.594	-1.028e-5	-7.762e-6
0.588	-1.039e-5	-7.768e-6
0.582	-1.047e-5	-7.765e-6
0.576	-1.060e-5	-7.771e-6
0.570	-1.076e-5	-7.771e-6
0.564	-1.090e-5	-7.771e-6
0.558	-1.094e-5	-7.769e-6
0.552	-1.104e-5	-7.747e-6
0.546	-1.113e-5	-7.767e-6
0.540	-1.124e-5	-7.769e-6
0.534	-1.129e-5	-7.785e-6
0.528	-1.141e-5	-7.764e-6
0.522	-1.153e-5	-7.766e-6
0.516	-1.167e-5	-7.769e-6
0.510	-1.173e-5	-7.779e-6
0.504	-1.186e-5	-7.763e-6
0.498	-1.193e-5	-7.761e-6
0.492	-1.207e-5	-7.770e-6
0.486	-1.209e-5	-7.763e-6
0.480	-1.221e-5	-7.772e-6
0.474	-1.234e-5	-7.769e-6
0.468	-1.247e-5	-7.763e-6
0.462	-1.254e-5	-7.765e-6
0.456	-1.266e-5	-7.775e-6
0.450	-1.278e-5	-7.757e-6
0.444	-1.289e-5	-7.758e-6
0.438	-1.295e-5	-7.757e-6
0.432	-1.301e-5	-7.765e-6
0.426	-1.313e-5	-7.762e-6
0.420	-1.323e-5	-7.753e-6
0.414	-1.328e-5	-7.751e-6
0.408	-1.347e-5	-7.761e-6
0.402	-1.353e-5	-7.758e-6
0.396	-1.365e-5	-7.756e-6
0.390	-1.369e-5	-7.757e-6
0.384	-1.378e-5	-7.754e-6
0.378	-1.387e-5	-7.760e-6
0.372	-1.398e-5	-7.764e-6
0.366	-1.401e-5	-7.760e-6
0.360	-1.408e-5	-7.757e-6
0.354	-1.415e-5	-7.766e-6
0.348	-1.422e-5	-7.766e-6
0.342	-1.426e-5	-7.746e-6
0.336	-1.431e-5	-7.761e-6
0.330	-1.439e-5	-7.754e-6
0.324	-1.449e-5	-7.759e-6
0.318	-1.452e-5	-7.753e-6
0.312	-1.461e-5	-7.761e-6
0.306	-1.473e-5	-7.766e-6
0.300	-1.482e-5	-7.768e-6
0.294	-1.487e-5	-7.757e-6
0.288	-1.496e-5	-7.755e-6
0.282	-1.506e-5	-7.758e-6
0.276	-1.519e-5	-7.760e-6
0.270	-1.524e-5	-7.759e-6
0.264	-1.537e-5	-7.759e-6
0.258	-1.547e-5	-7.757e-6
0.252	-1.560e-5	-7.760e-6
0.246	-1.569e-5	-7.755e-6
0.240	-1.581e-5	-7.752e-6
0.234	-1.595e-5	-7.764e-6
0.228	-1.607e-5	-7.747e-6
0.222	-1.615e-5	-7.743e-6
0.216	-1.628e-5	-7.746e-6
0.210	-1.640e-5	-7.752e-6
0.204	-1.665e-5	-7.752e-6
0.198	-1.668e-5	-7.744e-6
0.192	-1.683e-5	-7.758e-6
0.186	-1.696e-5	-7.752e-6
0.180	-1.712e-5	-7.751e-6
0.174	-1.719e-5	-7.755e-6
0.168	-1.733e-5	-7.743e-6
0.162	-1.747e-5	-7.746e-6
0.156	-1.764e-5	-7.748e-6
0.150	-1.774e-5	-7.748e-6
0.144	-1.789e-5	-7.746e-6
0.138	-1.805e-5	-7.751e-6
0.132	-1.824e-5	-7.760e-6
0.126	-1.833e-5	-7.758e-6
0.120	-1.848e-5	-7.748e-6
0.114	-1.864e-5	-7.752e-6
0.108	-1.881e-5	-7.755e-6
0.102	-1.899e-5	-7.757e-6
0.096	-1.911e-5	-7.753e-6
0.090	-1.927e-5	-7.753e-6
0.084	-1.946e-5	-7.753e-6
0.078	-1.957e-5	-7.751e-6
0.072	-1.971e-5	-7.753e-6
0.066	-1.986e-5	-7.751e-6
0.060	-2.002e-5	-7.751e-6
0.054	-2.014e-5	-7.750e-6
0.048	-2.029e-5	-7.750e-6
0.042	-2.044e-5	-7.748e-6
0.036	-2.061e-5	-7.750e-6
0.030	-2.071e-5	-7.751e-6
0.024	-2.078e-5	-7.737e-6
0.018	-2.088e-5	-7.745e-6
0.012	-2.099e-5	-7.743e-6
0.006	-2.102e-5	-7.742e-6
0.000	-2.128e-5	-7.753e-6
-0.006	-2.122e-5	-7.757e-6
-0.012	-2.128e-5	-7.752e-6
-0.018	-2.124e-5	-7.756e-6
-0.024	-2.123e-5	-7.752e-6
-0.030	-2.123e-5	-7.757e-6
-0.036	-2.122e-5	-7.757e-6
-0.042	-2.114e-5	-7.755e-6
-0.048	-2.108e-5	-7.760e-6
-0.054	-2.101e-5	-7.756e-6
-0.060	-2.095e-5	-7.756e-6
-0.066	-2.081e-5	-7.774e-6
-0.072	-2.069e-5	-7.768e-6
-0.078	-2.058e-5	-7.752e-6
-0.084	-2.050e-5	-7.758e-6
-0.090	-2.036e-5	-7.764e-6
-0.096	-2.022e-5	-7.757e-6
-0.102	-2.009e-5	-7.769e-6
-0.108	-1.999e-5	-7.769e-6
-0.114	-1.986e-5	-7.771e-6
-0.120	-1.975e-5	-7.769e-6
-0.126	-1.965e-5	-7.762e-6
-0.132	-1.959e-5	-7.757e-6
-0.138	-1.949e-5	-7.763e-6
-0.144	-1.943e-5	-7.767e-6
-0.150	-1.940e-5	-7.766e-6
-0.156	-1.946e-5	-7.762e-6
-0.162	-1.946e-5	-7.760e-6
-0.168	-1.953e-5	-7.769e-6
-0.174	-1.967e-5	-7.761e-6
-0.180	-1.987e-5	-7.761e-6
-0.186	-2.005e-5	-7.759e-6
-0.192	-2.033e-5	-7.754e-6
-0.198	-2.066e-5	-7.759e-6
-0.204	-2.107e-5	-7.760e-6
-0.210	-2.148e-5	-7.758e-6
-0.216	-2.200e-5	-7.751e-6
-0.222	-2.256e-5	-7.748e-6
-0.228	-2.319e-5	-7.750e-6
-0.234	-2.383e-5	-7.744e-6
-0.240	-2.458e-5	-7.744e-6
-0.246	-2.538e-5	-7.742e-6
-0.252	-2.630e-5	-7.743e-6
-0.258	-2.725e-5	-7.739e-6
-0.264	-2.826e-5	-7.744e-6
-0.270	-2.936e-5	-7.756e-6
-0.276	-3.053e-5	-7.750e-6
-0.282	-3.171e-5	-7.745e-6
-0.288	-3.300e-5	-7.743e-6
-0.294	-3.437e-5	-7.750e-6
-0.300	-3.584e-5	-7.754e-6
-0.306	-3.731e-5	-7.743e-6
-0.312	-3.889e-5	-7.739e-6
-0.318	-4.055e-5	-7.744e-6
-0.324	-4.233e-5	-7.738e-6
-0.330	-4.414e-5	-7.740e-6
-0.336	-4.606e-5	-7.725e-6
-0.342	-4.802e-5	-7.732e-6
-0.348	-5.007e-5	-7.763e-6
-0.354	-5.218e-5	-7.745e-6
-0.360	-5.443e-5	-7.753e-6
-0.366	-5.672e-5	-7.739e-6
-0.372	-5.912e-5	-7.758e-6
-0.378	-6.149e-5	-7.744e-6
-0.384	-6.394e-5	-7.738e-6
-0.390	-6.643e-5	-7.727e-6
-0.396	-6.908e-5	-7.752e-6
-0.402	-7.170e-5	-7.736e-6
-0.408	-7.436e-5	-7.744e-6
-0.414	-7.713e-5	-7.727e-6
-0.420	-7.987e-5	-7.731e-6
-0.426	-8.261e-5	-7.729e-6
-0.432	-8.538e-5	-7.720e-6
-0.438	-8.805e-5	-7.773e-6
-0.444	-9.075e-5	-7.760e-6
-0.450	-9.334e-5	-7.765e-6
-0.456	-9.589e-5	-7.750e-6
-0.462	-9.835e-5	-7.765e-6
-0.468	-1.007e-4	-7.761e-6
-0.474	-1.029e-4	-7.753e-6
-0.480	-1.051e-4	-7.745e-6
-0.486	-1.071e-4	-7.753e-6
-0.492	-1.091e-4	-7.755e-6
-0.498	-1.108e-4	-7.753e-6
-0.504	-1.125e-4	-7.768e-6
-0.510	-1.140e-4	-7.743e-6
-0.516	-1.155e-4	-7.745e-6
-0.522	-1.167e-4	-7.746e-6
-0.528	-1.179e-4	-7.745e-6
-0.534	-1.189e-4	-7.728e-6
-0.540	-1.199e-4	-7.738e-6
-0.546	-1.207e-4	-7.738e-6
-0.552	-1.215e-4	-7.731e-6
-0.558	-1.221e-4	-7.738e-6
-0.564	-1.227e-4	-7.734e-6
-0.570	-1.231e-4	-7.733e-6
-0.576	-1.236e-4	-7.730e-6
-0.582	-1.240e-4	-7.736e-6
-0.588	-1.244e-4	-7.737e-6
-0.594	-1.247e-4	-7.730e-6
-0.600	-1.217e-4	-7.714e-6
-0.594	-1.033e-4	-7.724e-6
-0.588	-9.286e-5	-7.751e-6
-0.582	-8.449e-5	-7.709e-6
-0.576	-7.747e-5	-7.713e-6
-0.570	-7.133e-5	-7.724e-6
-0.564	-6.587e-5	-7.723e-6
-0.558	-6.104e-5	-7.733e-6
-0.552	-5.660e-5	-7.732e-6
-0.546	-5.249e-5	-7.736e-6
-0.540	-4.876e-5	-7.745e-6
-0.534	-4.527e-5	-7.724e-6
-0.528	-4.198e-5	-7.732e-6
-0.522	-3.891e-5	-7.738e-6
-0.516	-3.600e-5	-7.731e-6
-0.510	-3.330e-5	-7.742e-6
-0.504	-3.074e-5	-7.738e-6
-0.498	-2.823e-5	-7.732e-6
-0.492	-2.587e-5	-7.733e-6
-0.486	-2.366e-5	-7.736e-6
-0.480	-2.160e-5	-7.746e-6
-0.474	-1.952e-5	-7.747e-6
-0.468	-1.750e-5	-7.736e-6
-0.462	-1.560e-5	-7.746e-6
-0.456	-1.379e-5	-7.753e-6
-0.450	-1.207e-5	-7.753e-6
-0.444	-1.041e-5	-7.757e-6
-0.438	-8.825e-6	-7.710e-6
-0.432	-7.352e-6	-7.666e-6
-0.426	-5.836e-6	-7.666e-6
-0.420	-4.319e-6	-7.669e-6
-0.414	-2.931e-6	-7.664e-6
-0.408	-1.533e-6	-7.673e-6
-0.402	-2.163e-7	-7.672e-6
-0.396	1.109e-6	-7.677e-6
-0.390	2.280e-6	-7.673e-6
-0.384	3.392e-6	-7.677e-6
-0.378	4.499e-6	-7.680e-6
-0.372	5.604e-6	-7.678e-6
-0.366	6.676e-6	-7.683e-6
-0.360	7.697e-6	-7.676e-6
-0.354	8.701e-6	-7.675e-6
-0.348	9.680e-6	-7.694e-6
-0.342	1.059e-5	-7.687e-6
-0.336	1.141e-5	-7.675e-6
-0.330	1.225e-5	-7.679e-6
-0.324	1.307e-5	-7.675e-6
-0.318	1.377e-5	-7.676e-6
-0.312	1.440e-5	-7.683e-6
-0.306	1.507e-5	-7.684e-6
-0.300	1.572e-5	-7.685e-6
-0.294	1.637e-5	-7.679e-6
-0.288	1.695e-5	-7.678e-6
-0.282	1.754e-5	-7.689e-6
-0.276	1.810e-5	-7.692e-6
-0.270	1.859e-5	-7.691e-6
-0.264	1.907e-5	-7.694e-6
-0.258	1.954e-5	-7.689e-6
-0.252	1.999e-5	-7.694e-6
-0.246	2.035e-5	-7.689e-6
-0.240	2.070e-5	-7.690e-6
-0.234	2.103e-5	-7.685e-6
-0.228	2.139e-5	-7.679e-6
-0.222	2.169e-5	-7.686e-6
-0.216	2.199e-5	-7.689e-6
-0.210	2.228e-5	-7.685e-6
-0.204	2.258e-5	-7.686e-6
-0.198	2.280e-5	-7.688e-6
-0.192	2.300e-5	-7.685e-6
-0.186	2.324e-5	-7.686e-6
-0.180	2.351e-5	-7.692e-6
-0.174	2.371e-5	-7.690e-6
-0.168	2.387e-5	-7.688e-6
-0.162	2.405e-5	-7.691e-6
-0.156	2.425e-5	-7.693e-6
-0.150	2.441e-5	-7.699e-6
-0.144	2.456e-5	-7.695e-6
-0.138	2.472e-5	-7.699e-6
-0.132	2.488e-5	-7.695e-6
-0.126	2.497e-5	-7.700e-6
-0.120	2.501e-5	-7.695e-6
-0.114	2.511e-5	-7.704e-6
-0.108	2.524e-5	-7.695e-6
-0.102	2.532e-5	-7.693e-6
-0.096	2.538e-5	-7.697e-6
-0.090	2.547e-5	-7.697e-6
-0.084	2.559e-5	-7.701e-6
-0.078	2.566e-5	-7.693e-6
-0.072	2.572e-5	-7.689e-6
-0.066	2.580e-5	-7.699e-6
-0.060	2.592e-5	-7.688e-6
-0.054	2.599e-5	-7.692e-6
-0.048	2.605e-5	-7.695e-6
-0.042	2.612e-5	-7.691e-6
-0.036	2.623e-5	-7.694e-6
-0.030	2.631e-5	-7.691e-6
-0.024	2.644e-5	-7.694e-6
-0.018	2.657e-5	-7.707e-6
-0.012	2.670e-5	-7.693e-6
-0.006	2.677e-5	-7.690e-6
-0.000	2.705e-5	-7.685e-6
0.006	2.711e-5	-7.678e-6
0.012	2.730e-5	-7.676e-6
0.018	2.749e-5	-7.694e-6
0.024	2.770e-5	-7.683e-6
0.030	2.796e-5	-7.691e-6
0.036	2.829e-5	-7.692e-6
0.042	2.864e-5	-7.688e-6
0.048	2.898e-5	-7.693e-6
0.054	2.941e-5	-7.687e-6
0.060	2.989e-5	-7.689e-6
0.066	3.036e-5	-7.681e-6
0.072	3.086e-5	-7.664e-6
0.078	3.145e-5	-7.662e-6
0.084	3.209e-5	-7.671e-6
0.090	3.275e-5	-7.664e-6
0.096	3.341e-5	-7.665e-6
0.102	3.417e-5	-7.666e-6
0.108	3.489e-5	-7.675e-6
0.114	3.561e-5	-7.666e-6
0.120	3.637e-5	-7.669e-6
0.126	3.719e-5	-7.670e-6
0.132	3.800e-5	-7.680e-6
0.138	3.881e-5	-7.680e-6
0.144	3.961e-5	-7.679e-6
0.150	4.041e-5	-7.676e-6
0.156	4.121e-5	-7.670e-6
0.162	4.189e-5	-7.682e-6
0.168	4.248e-5	-7.676e-6
0.174	4.300e-5	-7.670e-6
0.180	4.332e-5	-7.680e-6
0.186	4.332e-5	-7.684e-6
0.192	4.292e-5	-7.683e-6
0.198	4.220e-5	-7.676e-6
0.204	4.121e-5	-7.672e-6
0.210	4.007e-5	-7.678e-6
0.216	3.889e-5	-7.672e-6
0.222	3.791e-5	-7.655e-6
0.228	3.715e-5	-7.670e-6
0.234	3.647e-5	-7.666e-6
0.240	3.592e-5	-7.673e-6
0.246	3.550e-5	-7.670e-6
0.252	3.516e-5	-7.678e-6
0.258	3.485e-5	-7.669e-6
0.264	3.456e-5	-7.677e-6
0.270	3.436e-5	-7.658e-6
0.276	3.422e-5	-7.666e-6
0.282	3.403e-5	-7.669e-6
0.288	3.386e-5	-7.670e-6
0.294	3.373e-5	-7.665e-6
0.300	3.361e-5	-7.662e-6
0.306	3.339e-5	-7.669e-6
0.312	3.319e-5	-7.666e-6
0.318	3.300e-5	-7.672e-6
0.324	3.281e-5	-7.668e-6
0.330	3.258e-5	-7.662e-6
0.336	3.234e-5	-7.670e-6
0.342	3.217e-5	-7.666e-6
0.348	3.203e-5	-7.666e-6
0.354	3.187e-5	-7.663e-6
0.360	3.173e-5	-7.664e-6
0.366	3.160e-5	-7.665e-6
0.372	3.149e-5	-7.641e-6
0.378	3.134e-5	-7.663e-6
0.384	3.117e-5	-7.666e-6
0.390	3.111e-5	-7.659e-6
0.396	3.105e-5	-7.668e-6
0.402	3.093e-5	-7.665e-6
0.408	3.077e-5	-7.670e-6
0.414	3.077e-5	-7.667e-6
0.420	3.072e-5	-7.672e-6
0.426	3.063e-5	-7.671e-6
0.432	3.053e-5	-7.683e-6
0.438	3.051e-5	-7.693e-6
0.444	3.051e-5	-7.679e-6
0.450	3.048e-5	-7.691e-6
0.456	3.043e-5	-7.687e-6
0.462	3.050e-5	-7.691e-6
0.468	3.054e-5	-7.682e-6
0.474	3.055e-5	-7.696e-6
0.480	3.056e-5	-7.685e-6
0.486	3.066e-5	-7.675e-6
0.492	3.076e-5	-7.675e-6
0.498	3.084e-5	-7.675e-6
0.504	3.091e-5	-7.663e-6
0.510	3.105e-5	-7.663e-6
0.516	3.127e-5	-7.678e-6
0.522	3.137e-5	-7.677e-6
0.528	3.154e-5	-7.661e-6
0.534	3.177e-5	-7.661e-6
0.540	3.205e-5	-7.661e-6
0.546	3.229e-5	-7.669e-6
0.552	3.253e-5	-7.668e-6
0.558	3.284e-5	-7.667e-6
0.564	3.324e-5	-7.668e-6
0.570	3.352e-5	-7.669e-6
0.576	3.387e-5	-7.672e-6
0.582	3.430e-5	-7.660e-6
0.588	3.471e-5	-7.674e-6
0.594	3.507e-5	-7.670e-6
0.600	3.547e-5	-7.676e-6
0.606	3.598e-5	-7.676e-6
0.612	3.652e-5	-7.681e-6
0.618	3.704e-5	-7.679e-6
0.624	3.753e-5	-7.677e-6
0.630	3.810e-5	-7.674e-6
0.636	3.873e-5	-7.684e-6
0.642	3.929e-5	-7.684e-6
0.648	3.986e-5	-7.688e-6
0.654	4.049e-5	-7.684e-6
0.660	4.114e-5	-7.685e-6
0.666	4.179e-5	-7.680e-6
0.672	4.237e-5	-7.691e-6
0.678	4.307e-5	-7.687e-6
0.684	4.375e-5	-7.691e-6
0.690	4.440e-5	-7.692e-6
0.696	4.506e-5	-7.695e-6
0.702	4.583e-5	-7.690e-6
0.708	4.659e-5	-7.688e-6
0.714	4.731e-5	-7.685e-6
0.720	4.807e-5	-7.699e-6
0.726	4.890e-5	-7.694e-6
0.732	4.974e-5	-7.693e-6
0.738	5.051e-5	-7.687e-6
0.744	5.132e-5	-7.678e-6
0.750	5.223e-5	-7.684e-6
0.756	5.318e-5	-7.681e-6
0.762	5.401e-5	-7.696e-6
0.768	5.497e-5	-7.689e-6
0.774	5.592e-5	-7.685e-6
0.780	5.694e-5	-7.687e-6
0.786	5.796e-5	-7.690e-6
0.792	5.898e-5	-7.695e-6
0.798	6.013e-5	-7.698e-6
0.804	6.131e-5	-7.693e-6
0.810	6.247e-5	-7.701e-6
0.816	6.365e-5	-7.700e-6
0.822	6.508e-5	-7.692e-6
0.828	6.639e-5	-7.694e-6
0.834	6.773e-5	-7.694e-6
0.840	6.908e-5	-7.697e-6
0.846	7.058e-5	-7.657e-6
0.852	7.216e-5	-7.660e-6
0.858	7.380e-5	-7.670e-6
0.864	7.544e-5	-7.668e-6
0.870	7.730e-5	-7.676e-6
0.876	7.921e-5	-7.681e-6
0.882	8.115e-5	-7.658e-6
0.888	8.317e-5	-7.679e-6
0.894	8.539e-5	-7.679e-6
0.900	8.151e-5	-7.696e-6
0.894	5.034e-5	-7.695e-6
0.888	4.162e-5	-7.694e-6
0.882	3.522e-5	-7.691e-6
0.876	3.019e-5	-7.706e-6
0.870	2.602e-5	-7.705e-6
0.864	2.252e-5	-7.701e-6
0.858	1.947e-5	-7.698e-6
0.852	1.677e-5	-7.688e-6
0.846	1.454e-5	-7.699e-6
0.840	1.254e-5	-7.689e-6
0.834	1.067e-5	-7.697e-6
0.828	8.982e-6	-7.696e-6
0.822	7.517e-6	-7.695e-6
0.816	6.070e-6	-7.697e-6
0.810	4.870e-6	-7.698e-6
0.804	3.685e-6	-7.693e-6
0.798	2.653e-6	-7.692e-6
0.792	1.685e-6	-7.685e-6
0.786	7.658e-7	-7.689e-6
0.780	-1.140e-7	-7.709e-6
0.774	-8.156e-7	-7.685e-6
0.768	-1.542e-6	-7.691e-6
0.762	-2.172e-6	-7.685e-6
0.756	-2.855e-6	-7.683e-6
0.750	-3.400e-6	-7.694e-6
0.744	-3.932e-6	-7.684e-6
0.738	-4.412e-6	-7.686e-6
0.732	-4.899e-6	-7.684e-6
0.726	-5.263e-6	-7.691e-6
0.720	-5.669e-6	-7.686e-6
0.714	-6.044e-6	-7.695e-6
0.708	-6.415e-6	-7.689e-6
0.702	-6.675e-6	-7.684e-6
0.696	-6.970e-6	-7.682e-6
0.690	-7.222e-6	-7.671e-6
0.684	-7.534e-6	-7.676e-6
0.678	-7.720e-6	-7.668e-6
0.672	-7.943e-6	-7.678e-6
0.666	-8.173e-6	-7.677e-6
0.660	-8.399e-6	-7.685e-6
0.654	-8.542e-6	-7.696e-6
0.648	-8.725e-6	-7.726e-6
0.642	-8.910e-6	-7.737e-6
0.636	-9.080e-6	-7.754e-6
0.630	-9.215e-6	-7.760e-6
0.624	-9.393e-6	-7.767e-6
0.618	-9.578e-6	-7.771e-6
0.612	-9.808e-6	-7.789e-6
0.606	-9.886e-6	-7.779e-6
0.600	-1.004e-5	-7.769e-6
0.594	-1.018e-5	-7.771e-6
0.588	-1.030e-5	-7.781e-6
0.582	-1.040e-5	-7.773e-6
0.576	-1.051e-5	-7.785e-6
0.570	-1.064e-5	-7.774e-6
0.564	-1.079e-5	-7.778e-6
0.558	-1.084e-5	-7.774e-6
0.552	-1.094e-5	-7.768e-6
0.546	-1.106e-5	-7.777e-6
0.540	-1.118e-5	-7.777e-6
0.534	-1.123e-5	-7.776e-6
0.528	-1.133e-5	-7.769e-6
0.522	-1.143e-5	-7.774e-6
0.516	-1.157e-5	-7.769e-6
0.510	-1.164e-5	-7.768e-6
0.504	-1.175e-5	-7.772e-6
0.498	-1.185e-5	-7.773e-6
0.492	-1.196e-5	-7.781e-6
0.486	-1.200e-5	-7.769e-6
0.480	-1.211e-5	-7.773e-6
0.474	-1.223e-5	-7.768e-6
0.468	-1.235e-5	-7.769e-6
0.462	-1.242e-5	-7.765e-6
0.456	-1.251e-5	-7.764e-6
0.450	-1.261e-5	-7.767e-6
0.444	-1.273e-5	-7.780e-6
0.438	-1.278e-5	-7.765e-6
0.432	-1.287e-5	-7.765e-6
0.426	-1.298e-5	-7.764e-6
0.420	-1.309e-5	-7.761e-6
0.414	-1.316e-5	-7.762e-6
0.408	-1.336e-5	-7.769e-6
0.402	-1.342e-5	-7.772e-6
0.396	-1.355e-5	-7.764e-6
0.390	-1.360e-5	-7.776e-6
0.384	-1.368e-5	-7.761e-6
0.378	-1.378e-5	-7.766e-6
0.372	-1.391e-5	-7.773e-6
0.366	-1.395e-5	-7.771e-6
0.360	-1.403e-5	-7.776e-6
0.354	-1.410e-5	-7.768e-6
0.348	-1.418e-5	-7.767e-6
0.342	-1.421e-5	-7.765e-6
0.336	-1.428e-5	-7.755e-6
0.330	-1.434e-5	-7.768e-6
0.324	-1.445e-5	-7.764e-6
0.318	-1.447e-5	-7.769e-6
0.312	-1.455e-5	-7.761e-6
0.306	-1.467e-5	-7.763e-6
0.300	-1.475e-5	-7.760e-6
0.294	-1.480e-5	-7.764e-6
0.288	-1.490e-5	-7.767e-6
0.282	-1.498e-5	-7.769e-6
0.276	-1.511e-5	-7.759e-6
0.270	-1.518e-5	-7.769e-6
0.264	-1.529e-5	-7.763e-6
0.258	-1.541e-5	-7.761e-6
0.252	-1.556e-5	-7.769e-6
0.246	-1.563e-5	-7.767e-6
0.240	-1.576e-5	-7.762e-6
0.234	-1.588e-5	-7.761e-6
0.228	-1.601e-5	-7.754e-6
0.222	-1.609e-5	-7.760e-6
0.216	-1.622e-5	-7.753e-6
0.210	-1.635e-5	-7.751e-6
0.204	-1.660e-5	-7.757e-6
0.198	-1.663e-5	-7.760e-6
0.192	-1.676e-5	-7.754e-6
0.186	-1.689e-5	-7.762e-6
0.180	-1.705e-5	-7.760e-6
0.174	-1.713e-5	-7.760e-6
0.168	-1.728e-5	-7.757e-6
0.162	-1.742e-5	-7.754e-6
0.156	-1.758e-5	-7.747e-6
0.150	-1.770e-5	-7.744e-6
0.144	-1.785e-5	-7.741e-6
0.138	-1.801e-5	-7.744e-6
0.132	-1.818e-5	-7.755e-6
0.126	-1.829e-5	-7.750e-6
0.120	-1.844e-5	-7.748e-6
0.114	-1.860e-5	-7.745e-6
0.108	-1.878e-5	-7.755e-6
0.102	-1.896e-5	-7.754e-6
0.096	-1.909e-5	-7.760e-6
0.090	-1.924e-5	-7.759e-6
0.084	-1.942e-5	-7.753e-6
0.078	-1.955e-5	-7.758e-6
0.072	-1.967e-5	-7.752e-6
0.066	-1.983e-5	-7.756e-6
0.060	-1.999e-5	-7.754e-6
0.054	-2.009e-5	-7.768e-6
0.048	-2.024e-5	-7.754e-6
0.042	-2.036e-5	-7.748e-6
0.036	-2.053e-5	-7.765e-6
0.030	-2.059e-5	-7.751e-6
0.024	-2.066e-5	-7.752e-6
0.018	-2.077e-5	-7.750e-6
0.012	-2.090e-5	-7.744e-6
0.006	-2.094e-5	-7.744e-6
0.000	-2.121e-5	-7.751e-6
-0.006	-2.116e-5	-7.752e-6
-0.012	-2.121e-5	-7.751e-6
-0.018	-2.119e-5	-7.763e-6
-0.024	-2.119e-5	-7.759e-6
-0.030	-2.119e-5	-7.756e-6
-0.036	-2.119e-5	-7.756e-6
-0.042	-2.110e-5	-7.760e-6
-0.048	-2.104e-5	-7.757e-6
-0.054	-2.097e-5	-7.753e-6
-0.060	-2.091e-5	-7.761e-6
-0.066	-2.077e-5	-7.766e-6
-0.072	-2.065e-5	-7.757e-6
-0.078	-2.052e-5	-7.756e-6
-0.084	-2.042e-5	-7.755e-6
-0.090	-2.026e-5	-7.757e-6
-0.096	-2.010e-5	-7.767e-6
-0.102	-1.997e-5	-7.766e-6
-0.108	-1.985e-5	-7.767e-6
-0.114	-1.968e-5	-7.762e-6
-0.120	-1.954e-5	-7.763e-6
-0.126	-1.941e-5	-7.767e-6
-0.132	-1.933e-5	-7.762e-6
-0.138	-1.920e-5	-7.763e-6
-0.144	-1.910e-5	-7.765e-6
-0.150	-1.904e-5	-7.756e-6
-0.156	-1.904e-5	-7.759e-6
-0.162	-1.900e-5	-7.766e-6
-0.168	-1.902e-5	-7.762e-6
-0.174	-1.909e-5	-7.766e-6
-0.180	-1.921e-5	-7.764e-6
-0.186	-1.933e-5	-7.760e-6
-0.192	-1.951e-5	-7.768e-6
-0.198	-1.977e-5	-7.759e-6
-0.204	-2.009e-5	-7.758e-6
-0.210	-2.045e-5	-7.758e-6
-0.216	-2.082e-5	-7.759e-6
-0.222	-2.130e-5	-7.759e-6
-0.228	-2.186e-5	-7.753e-6
-0.234	-2.244e-5	-7.752e-6
-0.240	-2.307e-5	-7.752e-6
-0.246	-2.378e-5	-7.756e-6
-0.252	-2.460e-5	-7.763e-6
-0.258	-2.541e-5	-7.752e-6
-0.264	-2.633e-5	-7.747e-6
-0.270	-2.735e-5	-7.736e-6
-0.276	-2.845e-5	-7.752e-6
-0.282	-2.961e-5	-7.754e-6
-0.288	-3.082e-5	-7.745e-6
-0.294	-3.215e-5	-7.750e-6
-0.300	-3.357e-5	-7.758e-6
-0.306	-3.503e-5	-7.755e-6
-0.312	-3.655e-5	-7.743e-6
-0.318	-3.819e-5	-7.750e-6
-0.324	-3.996e-5	-7.769e-6
-0.330	-4.174e-5	-7.747e-6
-0.336	-4.361e-5	-7.746e-6
-0.342	-4.562e-5	-7.741e-6
-0.348	-4.770e-5	-7.738e-6
-0.354	-4.977e-5	-7.766e-6
-0.360	-5.199e-5	-7.764e-6
-0.366	-5.427e-5	-7.769e-6
-0.372	-5.662e-5	-7.764e-6
-0.378	-5.898e-5	-7.759e-6
-0.384	-6.142e-5	-7.754e-6
-0.390	-6.393e-5	-7.739e-6
-0.396	-6.646e-5	-7.731e-6
-0.402	-6.898e-5	-7.756e-6
-0.408	-7.160e-5	-7.750e-6
-0.414	-7.423e-5	-7.739e-6
-0.420	-7.689e-5	-7.732e-6
-0.426	-7.946e-5	-7.736e-6
-0.432	-8.204e-5	-7.729e-6
-0.438	-8.462e-5	-7.723e-6
-0.444	-8.714e-5	-7.727e-6
-0.450	-8.952e-5	-7.769e-6
-0.456	-9.182e-5	-7.757e-6
-0.462	-9.406e-5	-7.763e-6
-0.468	-9.625e-5	-7.758e-6
-0.474	-9.827e-5	-7.761e-6
-0.480	-1.001e-4	-7.758e-6
-0.486	-1.019e-4	-7.752e-6
-0.492	-1.036e-4	-7.758e-6
-0.498	-1.051e-4	-7.753e-6
-0.504	-1.065e-4	-7.752e-6
-0.510	-1.078e-4	-7.772e-6
-0.516	-1.090e-4	-7.759e-6
-0.522	-1.101e-4	-7.755e-6
-0.528	-1.110e-4	-7.756e-6
-0.534	-1.119e-4	-7.752e-6
-0.540	-1.127e-4	-7.756e-6
-0.546	-1.134e-4	-7.744e-6
-0.552	-1.140e-4	-7.747e-6
-0.558	-1.146e-4	-7.745e-6
-0.564	-1.153e-4	-7.742e-6
-0.570	-1.157e-4	-7.743e-6
-0.576	-1.162e-4	-7.740e-6
-0.582	-1.166e-4	-7.745e-6
-0.588	-1.170e-4	-7.742e-6
-0.594	-1.174e-4	-7.748e-6
-0.599	-1.177e-4	-7.746e-6