File: data/cv/0622/750 rpm CV.txt
June 22, 2016   14:38:46
Cyclic Voltammetry
File: c:\users\potentio2\desktop\suda\20160622\750 rpm cv.txt
Data Source:  Experiment
Instrument Model:  CHI7082E
Header:
Note:

Init E (V) = 0
High E (V) = 0.9
Low E (V) = -0.6
Init P/N = P
Scan Rate (V/s) = 0.01
Segment = 6
Sample Interval (V) = 0.001
Quiet Time (sec) = 2
Sensitivity (A/V) = 0.001
Sens 2 (A/V) = 0.001

Segment 1:

Segment 2:

Segment 3:
Ep = 0.156V
ip = 6.743e-6A
Ah = 7.742e-5C

Segment 4:

Segment 5:
Ep = 0.159V
ip = 7.667e-6A
Ah = 8.570e-5C

Segment 6:

Current 2:

Segment 1:

Segment 2:
Ep = 0.041V
ip = -3.043e-8A
Ah = -1.289e-7C

Segment 3:

Segment 4:

Segment 5:

Segment 6:
Ep = -0.163V
ip = -2.353e-8A
Ah = -6.231e-8C

Potential/V	i1/A	i2/A

0.000	-4.111e-5	-7.582e-6
0.006	-1.206e-5	-7.614e-6
0.012	8.269e-7	-7.539e-6
0.018	8.476e-6	-7.566e-6
0.024	1.361e-5	-7.549e-6
0.030	1.722e-5	-7.552e-6
0.036	2.003e-5	-7.565e-6
0.042	2.210e-5	-7.554e-6
0.048	2.377e-5	-7.569e-6
0.054	2.517e-5	-7.572e-6
0.060	2.630e-5	-7.576e-6
0.066	2.716e-5	-7.583e-6
0.072	2.787e-5	-7.585e-6
0.078	2.850e-5	-7.589e-6
0.084	2.906e-5	-7.593e-6
0.090	2.947e-5	-7.592e-6
0.096	2.983e-5	-7.604e-6
0.102	3.019e-5	-7.599e-6
0.108	3.048e-5	-7.591e-6
0.114	3.066e-5	-7.582e-6
0.120	3.081e-5	-7.579e-6
0.126	3.099e-5	-7.575e-6
0.132	3.114e-5	-7.579e-6
0.138	3.125e-5	-7.582e-6
0.144	3.133e-5	-7.579e-6
0.150	3.143e-5	-7.583e-6
0.156	3.150e-5	-7.586e-6
0.162	3.155e-5	-7.586e-6
0.168	3.157e-5	-7.579e-6
0.174	3.161e-5	-7.584e-6
0.180	3.165e-5	-7.598e-6
0.186	3.166e-5	-7.602e-6
0.192	3.167e-5	-7.598e-6
0.198	3.171e-5	-7.597e-6
0.204	3.175e-5	-7.597e-6
0.210	3.179e-5	-7.594e-6
0.216	3.176e-5	-7.590e-6
0.222	3.182e-5	-7.593e-6
0.228	3.185e-5	-7.604e-6
0.234	3.178e-5	-7.600e-6
0.240	3.174e-5	-7.604e-6
0.246	3.176e-5	-7.607e-6
0.252	3.180e-5	-7.595e-6
0.258	3.184e-5	-7.600e-6
0.264	3.180e-5	-7.602e-6
0.270	3.180e-5	-7.607e-6
0.276	3.184e-5	-7.611e-6
0.282	3.175e-5	-7.602e-6
0.288	3.174e-5	-7.602e-6
0.294	3.175e-5	-7.610e-6
0.300	3.179e-5	-7.599e-6
0.306	3.179e-5	-7.603e-6
0.312	3.178e-5	-7.600e-6
0.318	3.174e-5	-7.608e-6
0.324	3.179e-5	-7.599e-6
0.330	3.174e-5	-7.606e-6
0.336	3.167e-5	-7.609e-6
0.342	3.166e-5	-7.600e-6
0.348	3.170e-5	-7.600e-6
0.354	3.170e-5	-7.610e-6
0.360	3.168e-5	-7.611e-6
0.366	3.168e-5	-7.607e-6
0.372	3.170e-5	-7.609e-6
0.378	3.165e-5	-7.618e-6
0.384	3.157e-5	-7.617e-6
0.390	3.159e-5	-7.621e-6
0.396	3.162e-5	-7.618e-6
0.402	3.163e-5	-7.628e-6
0.408	3.160e-5	-7.626e-6
0.414	3.170e-5	-7.621e-6
0.420	3.168e-5	-7.623e-6
0.426	3.166e-5	-7.619e-6
0.432	3.168e-5	-7.622e-6
0.438	3.172e-5	-7.624e-6
0.444	3.178e-5	-7.620e-6
0.450	3.179e-5	-7.620e-6
0.456	3.181e-5	-7.627e-6
0.462	3.190e-5	-7.627e-6
0.468	3.194e-5	-7.634e-6
0.474	3.196e-5	-7.634e-6
0.480	3.200e-5	-7.634e-6
0.486	3.210e-5	-7.631e-6
0.492	3.222e-5	-7.625e-6
0.498	3.225e-5	-7.636e-6
0.504	3.231e-5	-7.633e-6
0.510	3.243e-5	-7.627e-6
0.516	3.262e-5	-7.632e-6
0.522	3.266e-5	-7.631e-6
0.528	3.275e-5	-7.632e-6
0.534	3.291e-5	-7.627e-6
0.540	3.308e-5	-7.632e-6
0.546	3.320e-5	-7.626e-6
0.552	3.329e-5	-7.619e-6
0.558	3.350e-5	-7.640e-6
0.564	3.376e-5	-7.635e-6
0.570	3.392e-5	-7.638e-6
0.576	3.410e-5	-7.640e-6
0.582	3.439e-5	-7.640e-6
0.588	3.469e-5	-7.650e-6
0.594	3.495e-5	-7.643e-6
0.600	3.525e-5	-7.648e-6
0.606	3.565e-5	-7.645e-6
0.612	3.609e-5	-7.648e-6
0.618	3.653e-5	-7.646e-6
0.624	3.694e-5	-7.650e-6
0.630	3.745e-5	-7.651e-6
0.636	3.798e-5	-7.647e-6
0.642	3.844e-5	-7.659e-6
0.648	3.893e-5	-7.658e-6
0.654	3.952e-5	-7.655e-6
0.660	4.016e-5	-7.646e-6
0.666	4.078e-5	-7.644e-6
0.672	4.133e-5	-7.649e-6
0.678	4.192e-5	-7.647e-6
0.684	4.257e-5	-7.661e-6
0.690	4.314e-5	-7.661e-6
0.696	4.377e-5	-7.661e-6
0.702	4.446e-5	-7.655e-6
0.708	4.525e-5	-7.659e-6
0.714	4.599e-5	-7.663e-6
0.720	4.679e-5	-7.661e-6
0.726	4.766e-5	-7.660e-6
0.732	4.865e-5	-7.666e-6
0.738	4.963e-5	-7.665e-6
0.744	5.062e-5	-7.654e-6
0.750	5.178e-5	-7.642e-6
0.756	5.304e-5	-7.657e-6
0.762	5.429e-5	-7.656e-6
0.768	5.569e-5	-7.655e-6
0.774	5.718e-5	-7.664e-6
0.780	5.889e-5	-7.678e-6
0.786	6.069e-5	-7.658e-6
0.792	6.265e-5	-7.670e-6
0.798	6.475e-5	-7.671e-6
0.804	6.640e-5	-7.681e-6
0.810	6.841e-5	-7.684e-6
0.816	7.052e-5	-7.642e-6
0.822	7.305e-5	-7.654e-6
0.828	7.544e-5	-7.638e-6
0.834	7.783e-5	-7.652e-6
0.840	8.030e-5	-7.641e-6
0.846	8.292e-5	-7.655e-6
0.852	8.556e-5	-7.659e-6
0.858	8.820e-5	-7.678e-6
0.864	9.100e-5	-7.653e-6
0.870	9.394e-5	-7.664e-6
0.876	9.692e-5	-7.679e-6
0.882	9.989e-5	-7.659e-6
0.888	1.030e-4	-7.672e-6
0.894	1.062e-4	-7.682e-6
0.900	1.029e-4	-7.694e-6
0.894	5.794e-5	-7.695e-6
0.888	4.413e-5	-7.682e-6
0.882	3.478e-5	-7.663e-6
0.876	2.759e-5	-7.681e-6
0.870	2.191e-5	-7.676e-6
0.864	1.724e-5	-7.683e-6
0.858	1.346e-5	-7.677e-6
0.852	1.010e-5	-7.676e-6
0.846	7.393e-6	-7.679e-6
0.840	4.983e-6	-7.694e-6
0.834	2.919e-6	-7.675e-6
0.828	1.060e-6	-7.672e-6
0.822	-5.686e-7	-7.671e-6
0.816	-2.175e-6	-7.668e-6
0.810	-3.465e-6	-7.670e-6
0.804	-4.642e-6	-7.672e-6
0.798	-5.659e-6	-7.672e-6
0.792	-6.589e-6	-7.672e-6
0.786	-7.567e-6	-7.667e-6
0.780	-8.372e-6	-7.684e-6
0.774	-9.080e-6	-7.734e-6
0.768	-9.774e-6	-7.769e-6
0.762	-1.039e-5	-7.771e-6
0.756	-1.099e-5	-7.753e-6
0.750	-1.148e-5	-7.768e-6
0.744	-1.197e-5	-7.756e-6
0.738	-1.240e-5	-7.753e-6
0.732	-1.282e-5	-7.755e-6
0.726	-1.317e-5	-7.745e-6
0.720	-1.352e-5	-7.751e-6
0.714	-1.388e-5	-7.750e-6
0.708	-1.422e-5	-7.760e-6
0.702	-1.445e-5	-7.758e-6
0.696	-1.475e-5	-7.765e-6
0.690	-1.502e-5	-7.764e-6
0.684	-1.532e-5	-7.754e-6
0.678	-1.551e-5	-7.751e-6
0.672	-1.573e-5	-7.769e-6
0.666	-1.597e-5	-7.761e-6
0.660	-1.617e-5	-7.756e-6
0.654	-1.635e-5	-7.756e-6
0.648	-1.659e-5	-7.756e-6
0.642	-1.679e-5	-7.757e-6
0.636	-1.697e-5	-7.753e-6
0.630	-1.709e-5	-7.758e-6
0.624	-1.727e-5	-7.751e-6
0.618	-1.744e-5	-7.753e-6
0.612	-1.767e-5	-7.755e-6
0.606	-1.774e-5	-7.751e-6
0.600	-1.792e-5	-7.749e-6
0.594	-1.808e-5	-7.750e-6
0.588	-1.826e-5	-7.739e-6
0.582	-1.837e-5	-7.751e-6
0.576	-1.851e-5	-7.747e-6
0.570	-1.866e-5	-7.759e-6
0.564	-1.887e-5	-7.758e-6
0.558	-1.897e-5	-7.755e-6
0.552	-1.910e-5	-7.755e-6
0.546	-1.923e-5	-7.754e-6
0.540	-1.939e-5	-7.760e-6
0.534	-1.949e-5	-7.764e-6
0.528	-1.962e-5	-7.762e-6
0.522	-1.977e-5	-7.752e-6
0.516	-1.996e-5	-7.750e-6
0.510	-2.007e-5	-7.746e-6
0.504	-2.019e-5	-7.749e-6
0.498	-2.033e-5	-7.752e-6
0.492	-2.051e-5	-7.747e-6
0.486	-2.055e-5	-7.743e-6
0.480	-2.070e-5	-7.746e-6
0.474	-2.083e-5	-7.752e-6
0.468	-2.099e-5	-7.749e-6
0.462	-2.107e-5	-7.761e-6
0.456	-2.119e-5	-7.743e-6
0.450	-2.133e-5	-7.763e-6
0.444	-2.148e-5	-7.755e-6
0.438	-2.154e-5	-7.760e-6
0.432	-2.166e-5	-7.755e-6
0.426	-2.176e-5	-7.742e-6
0.420	-2.192e-5	-7.747e-6
0.414	-2.199e-5	-7.748e-6
0.408	-2.223e-5	-7.753e-6
0.402	-2.226e-5	-7.760e-6
0.396	-2.237e-5	-7.750e-6
0.390	-2.242e-5	-7.751e-6
0.384	-2.250e-5	-7.744e-6
0.378	-2.257e-5	-7.743e-6
0.372	-2.264e-5	-7.748e-6
0.366	-2.263e-5	-7.750e-6
0.360	-2.270e-5	-7.732e-6
0.354	-2.272e-5	-7.751e-6
0.348	-2.278e-5	-7.753e-6
0.342	-2.279e-5	-7.751e-6
0.336	-2.286e-5	-7.747e-6
0.330	-2.292e-5	-7.753e-6
0.324	-2.302e-5	-7.746e-6
0.318	-2.306e-5	-7.748e-6
0.312	-2.317e-5	-7.750e-6
0.306	-2.329e-5	-7.755e-6
0.300	-2.341e-5	-7.753e-6
0.294	-2.349e-5	-7.753e-6
0.288	-2.364e-5	-7.762e-6
0.282	-2.378e-5	-7.759e-6
0.276	-2.396e-5	-7.752e-6
0.270	-2.407e-5	-7.758e-6
0.264	-2.422e-5	-7.766e-6
0.258	-2.439e-5	-7.754e-6
0.252	-2.458e-5	-7.766e-6
0.246	-2.470e-5	-7.747e-6
0.240	-2.488e-5	-7.763e-6
0.234	-2.503e-5	-7.758e-6
0.228	-2.521e-5	-7.758e-6
0.222	-2.536e-5	-7.760e-6
0.216	-2.552e-5	-7.757e-6
0.210	-2.568e-5	-7.748e-6
0.204	-2.599e-5	-7.748e-6
0.198	-2.605e-5	-7.744e-6
0.192	-2.621e-5	-7.762e-6
0.186	-2.641e-5	-7.743e-6
0.180	-2.661e-5	-7.745e-6
0.174	-2.674e-5	-7.735e-6
0.168	-2.694e-5	-7.744e-6
0.162	-2.711e-5	-7.739e-6
0.156	-2.731e-5	-7.745e-6
0.150	-2.745e-5	-7.747e-6
0.144	-2.760e-5	-7.746e-6
0.138	-2.779e-5	-7.733e-6
0.132	-2.803e-5	-7.747e-6
0.126	-2.820e-5	-7.744e-6
0.120	-2.843e-5	-7.753e-6
0.114	-2.863e-5	-7.746e-6
0.108	-2.884e-5	-7.751e-6
0.102	-2.910e-5	-7.754e-6
0.096	-2.930e-5	-7.761e-6
0.090	-2.952e-5	-7.758e-6
0.084	-2.976e-5	-7.763e-6
0.078	-2.996e-5	-7.751e-6
0.072	-3.015e-5	-7.758e-6
0.066	-3.039e-5	-7.752e-6
0.060	-3.064e-5	-7.760e-6
0.054	-3.084e-5	-7.769e-6
0.048	-3.109e-5	-7.763e-6
0.042	-3.134e-5	-7.746e-6
0.036	-3.161e-5	-7.762e-6
0.030	-3.180e-5	-7.759e-6
0.024	-3.198e-5	-7.746e-6
0.018	-3.218e-5	-7.748e-6
0.012	-3.243e-5	-7.753e-6
0.006	-3.259e-5	-7.755e-6
0.000	-3.299e-5	-7.764e-6
-0.006	-3.304e-5	-7.760e-6
-0.012	-3.318e-5	-7.763e-6
-0.018	-3.327e-5	-7.765e-6
-0.024	-3.338e-5	-7.767e-6
-0.030	-3.348e-5	-7.753e-6
-0.036	-3.360e-5	-7.754e-6
-0.042	-3.363e-5	-7.762e-6
-0.048	-3.368e-5	-7.766e-6
-0.054	-3.372e-5	-7.760e-6
-0.060	-3.380e-5	-7.762e-6
-0.066	-3.378e-5	-7.756e-6
-0.072	-3.376e-5	-7.767e-6
-0.078	-3.376e-5	-7.758e-6
-0.084	-3.373e-5	-7.767e-6
-0.090	-3.368e-5	-7.763e-6
-0.096	-3.364e-5	-7.769e-6
-0.102	-3.361e-5	-7.774e-6
-0.108	-3.357e-5	-7.766e-6
-0.114	-3.347e-5	-7.767e-6
-0.120	-3.347e-5	-7.764e-6
-0.126	-3.346e-5	-7.771e-6
-0.132	-3.346e-5	-7.769e-6
-0.138	-3.344e-5	-7.768e-6
-0.144	-3.344e-5	-7.752e-6
-0.150	-3.346e-5	-7.758e-6
-0.156	-3.355e-5	-7.764e-6
-0.162	-3.363e-5	-7.767e-6
-0.168	-3.376e-5	-7.768e-6
-0.174	-3.393e-5	-7.761e-6
-0.180	-3.417e-5	-7.769e-6
-0.186	-3.440e-5	-7.758e-6
-0.192	-3.472e-5	-7.756e-6
-0.198	-3.507e-5	-7.760e-6
-0.204	-3.556e-5	-7.740e-6
-0.210	-3.603e-5	-7.761e-6
-0.216	-3.654e-5	-7.752e-6
-0.222	-3.716e-5	-7.747e-6
-0.228	-3.790e-5	-7.748e-6
-0.234	-3.863e-5	-7.750e-6
-0.240	-3.947e-5	-7.761e-6
-0.246	-4.034e-5	-7.751e-6
-0.252	-4.133e-5	-7.756e-6
-0.258	-4.231e-5	-7.747e-6
-0.264	-4.344e-5	-7.742e-6
-0.270	-4.460e-5	-7.752e-6
-0.276	-4.579e-5	-7.746e-6
-0.282	-4.693e-5	-7.740e-6
-0.288	-4.818e-5	-7.760e-6
-0.294	-4.945e-5	-7.774e-6
-0.300	-5.083e-5	-7.768e-6
-0.306	-5.216e-5	-7.763e-6
-0.312	-5.356e-5	-7.772e-6
-0.318	-5.497e-5	-7.767e-6
-0.324	-5.645e-5	-7.759e-6
-0.330	-5.790e-5	-7.755e-6
-0.336	-5.939e-5	-7.768e-6
-0.342	-6.094e-5	-7.759e-6
-0.348	-6.255e-5	-7.756e-6
-0.354	-6.410e-5	-7.756e-6
-0.360	-6.570e-5	-7.752e-6
-0.366	-6.735e-5	-7.749e-6
-0.372	-6.904e-5	-7.765e-6
-0.378	-7.073e-5	-7.761e-6
-0.384	-7.241e-5	-7.748e-6
-0.390	-7.413e-5	-7.751e-6
-0.396	-7.589e-5	-7.755e-6
-0.402	-7.758e-5	-7.745e-6
-0.408	-7.933e-5	-7.746e-6
-0.414	-8.110e-5	-7.747e-6
-0.420	-8.284e-5	-7.748e-6
-0.426	-8.450e-5	-7.746e-6
-0.432	-8.620e-5	-7.738e-6
-0.438	-8.782e-5	-7.773e-6
-0.444	-8.946e-5	-7.788e-6
-0.450	-9.101e-5	-7.770e-6
-0.456	-9.255e-5	-7.776e-6
-0.462	-9.404e-5	-7.750e-6
-0.468	-9.555e-5	-7.773e-6
-0.474	-9.691e-5	-7.765e-6
-0.480	-9.825e-5	-7.776e-6
-0.486	-9.952e-5	-7.768e-6
-0.492	-1.008e-4	-7.768e-6
-0.498	-1.019e-4	-7.759e-6
-0.504	-1.030e-4	-7.768e-6
-0.510	-1.041e-4	-7.768e-6
-0.516	-1.051e-4	-7.765e-6
-0.522	-1.060e-4	-7.759e-6
-0.528	-1.069e-4	-7.758e-6
-0.534	-1.077e-4	-7.762e-6
-0.540	-1.084e-4	-7.769e-6
-0.546	-1.091e-4	-7.764e-6
-0.552	-1.097e-4	-7.752e-6
-0.558	-1.103e-4	-7.768e-6
-0.564	-1.109e-4	-7.764e-6
-0.570	-1.113e-4	-7.764e-6
-0.576	-1.117e-4	-7.770e-6
-0.582	-1.120e-4	-7.769e-6
-0.588	-1.123e-4	-7.768e-6
-0.594	-1.126e-4	-7.764e-6
-0.600	-1.096e-4	-7.742e-6
-0.594	-9.272e-5	-7.754e-6
-0.588	-8.302e-5	-7.723e-6
-0.582	-7.539e-5	-7.737e-6
-0.576	-6.902e-5	-7.741e-6
-0.570	-6.351e-5	-7.730e-6
-0.564	-5.857e-5	-7.743e-6
-0.558	-5.415e-5	-7.738e-6
-0.552	-5.011e-5	-7.746e-6
-0.546	-4.643e-5	-7.714e-6
-0.540	-4.293e-5	-7.721e-6
-0.534	-3.973e-5	-7.740e-6
-0.528	-3.678e-5	-7.740e-6
-0.522	-3.400e-5	-7.738e-6
-0.516	-3.132e-5	-7.749e-6
-0.510	-2.880e-5	-7.743e-6
-0.504	-2.647e-5	-7.732e-6
-0.498	-2.423e-5	-7.749e-6
-0.492	-2.209e-5	-7.751e-6
-0.486	-2.001e-5	-7.761e-6
-0.480	-1.807e-5	-7.750e-6
-0.474	-1.617e-5	-7.761e-6
-0.468	-1.428e-5	-7.769e-6
-0.462	-1.251e-5	-7.757e-6
-0.456	-1.085e-5	-7.767e-6
-0.450	-9.194e-6	-7.765e-6
-0.444	-7.589e-6	-7.661e-6
-0.438	-6.057e-6	-7.676e-6
-0.432	-4.577e-6	-7.677e-6
-0.426	-3.157e-6	-7.680e-6
-0.420	-1.736e-6	-7.676e-6
-0.414	-4.112e-7	-7.682e-6
-0.408	9.410e-7	-7.680e-6
-0.402	2.181e-6	-7.683e-6
-0.396	3.396e-6	-7.687e-6
-0.390	4.544e-6	-7.688e-6
-0.384	5.618e-6	-7.696e-6
-0.378	6.753e-6	-7.690e-6
-0.372	7.845e-6	-7.696e-6
-0.366	8.873e-6	-7.695e-6
-0.360	9.828e-6	-7.701e-6
-0.354	1.083e-5	-7.704e-6
-0.348	1.182e-5	-7.679e-6
-0.342	1.276e-5	-7.680e-6
-0.336	1.362e-5	-7.681e-6
-0.330	1.441e-5	-7.689e-6
-0.324	1.519e-5	-7.694e-6
-0.318	1.594e-5	-7.692e-6
-0.312	1.668e-5	-7.690e-6
-0.306	1.744e-5	-7.695e-6
-0.300	1.819e-5	-7.702e-6
-0.294	1.887e-5	-7.706e-6
-0.288	1.947e-5	-7.705e-6
-0.282	2.008e-5	-7.704e-6
-0.276	2.068e-5	-7.706e-6
-0.270	2.124e-5	-7.697e-6
-0.264	2.180e-5	-7.688e-6
-0.258	2.232e-5	-7.689e-6
-0.252	2.283e-5	-7.684e-6
-0.246	2.337e-5	-7.698e-6
-0.240	2.381e-5	-7.697e-6
-0.234	2.426e-5	-7.697e-6
-0.228	2.473e-5	-7.693e-6
-0.222	2.516e-5	-7.705e-6
-0.216	2.555e-5	-7.705e-6
-0.210	2.594e-5	-7.713e-6
-0.204	2.632e-5	-7.707e-6
-0.198	2.664e-5	-7.710e-6
-0.192	2.697e-5	-7.707e-6
-0.186	2.732e-5	-7.713e-6
-0.180	2.768e-5	-7.697e-6
-0.174	2.796e-5	-7.716e-6
-0.168	2.819e-5	-7.704e-6
-0.162	2.849e-5	-7.716e-6
-0.156	2.880e-5	-7.713e-6
-0.150	2.911e-5	-7.704e-6
-0.144	2.945e-5	-7.722e-6
-0.138	2.983e-5	-7.711e-6
-0.132	3.016e-5	-7.702e-6
-0.126	3.050e-5	-7.698e-6
-0.120	3.084e-5	-7.689e-6
-0.114	3.120e-5	-7.690e-6
-0.108	3.161e-5	-7.686e-6
-0.102	3.204e-5	-7.678e-6
-0.096	3.237e-5	-7.686e-6
-0.090	3.278e-5	-7.685e-6
-0.084	3.322e-5	-7.687e-6
-0.078	3.361e-5	-7.694e-6
-0.072	3.408e-5	-7.695e-6
-0.066	3.455e-5	-7.681e-6
-0.060	3.503e-5	-7.706e-6
-0.054	3.548e-5	-7.695e-6
-0.048	3.595e-5	-7.698e-6
-0.042	3.640e-5	-7.691e-6
-0.036	3.695e-5	-7.685e-6
-0.030	3.745e-5	-7.687e-6
-0.024	3.797e-5	-7.703e-6
-0.018	3.855e-5	-7.699e-6
-0.012	3.916e-5	-7.698e-6
-0.006	3.975e-5	-7.700e-6
-0.000	4.048e-5	-7.689e-6
0.006	4.098e-5	-7.678e-6
0.012	4.161e-5	-7.684e-6
0.018	4.219e-5	-7.688e-6
0.024	4.283e-5	-7.691e-6
0.030	4.341e-5	-7.697e-6
0.036	4.403e-5	-7.696e-6
0.042	4.462e-5	-7.698e-6
0.048	4.525e-5	-7.698e-6
0.054	4.597e-5	-7.694e-6
0.060	4.669e-5	-7.698e-6
0.066	4.735e-5	-7.706e-6
0.072	4.802e-5	-7.703e-6
0.078	4.873e-5	-7.711e-6
0.084	4.946e-5	-7.703e-6
0.090	5.014e-5	-7.712e-6
0.096	5.076e-5	-7.690e-6
0.102	5.147e-5	-7.698e-6
0.108	5.219e-5	-7.693e-6
0.114	5.280e-5	-7.692e-6
0.120	5.344e-5	-7.691e-6
0.126	5.405e-5	-7.699e-6
0.132	5.463e-5	-7.704e-6
0.138	5.512e-5	-7.700e-6
0.144	5.551e-5	-7.700e-6
0.150	5.582e-5	-7.692e-6
0.156	5.598e-5	-7.687e-6
0.162	5.587e-5	-7.690e-6
0.168	5.553e-5	-7.691e-6
0.174	5.500e-5	-7.695e-6
0.180	5.438e-5	-7.698e-6
0.186	5.367e-5	-7.686e-6
0.192	5.289e-5	-7.700e-6
0.198	5.210e-5	-7.696e-6
0.204	5.140e-5	-7.692e-6
0.210	5.073e-5	-7.685e-6
0.216	5.003e-5	-7.697e-6
0.222	4.949e-5	-7.704e-6
0.228	4.897e-5	-7.707e-6
0.234	4.847e-5	-7.707e-6
0.240	4.803e-5	-7.704e-6
0.246	4.771e-5	-7.700e-6
0.252	4.742e-5	-7.705e-6
0.258	4.712e-5	-7.698e-6
0.264	4.684e-5	-7.700e-6
0.270	4.662e-5	-7.704e-6
0.276	4.646e-5	-7.701e-6
0.282	4.626e-5	-7.704e-6
0.288	4.609e-5	-7.703e-6
0.294	4.597e-5	-7.703e-6
0.300	4.584e-5	-7.703e-6
0.306	4.569e-5	-7.701e-6
0.312	4.553e-5	-7.702e-6
0.318	4.544e-5	-7.701e-6
0.324	4.534e-5	-7.705e-6
0.330	4.514e-5	-7.706e-6
0.336	4.495e-5	-7.710e-6
0.342	4.481e-5	-7.706e-6
0.348	4.466e-5	-7.708e-6
0.354	4.442e-5	-7.704e-6
0.360	4.418e-5	-7.697e-6
0.366	4.395e-5	-7.696e-6
0.372	4.376e-5	-7.702e-6
0.378	4.348e-5	-7.698e-6
0.384	4.318e-5	-7.692e-6
0.390	4.299e-5	-7.705e-6
0.396	4.280e-5	-7.704e-6
0.402	4.252e-5	-7.700e-6
0.408	4.224e-5	-7.678e-6
0.414	4.214e-5	-7.683e-6
0.420	4.195e-5	-7.697e-6
0.426	4.164e-5	-7.700e-6
0.432	4.138e-5	-7.686e-6
0.438	4.120e-5	-7.692e-6
0.444	4.109e-5	-7.690e-6
0.450	4.093e-5	-7.695e-6
0.456	4.082e-5	-7.697e-6
0.462	4.075e-5	-7.708e-6
0.468	4.072e-5	-7.699e-6
0.474	4.065e-5	-7.701e-6
0.480	4.059e-5	-7.694e-6
0.486	4.063e-5	-7.705e-6
0.492	4.066e-5	-7.701e-6
0.498	4.067e-5	-7.698e-6
0.504	4.069e-5	-7.690e-6
0.510	4.080e-5	-7.694e-6
0.516	4.098e-5	-7.685e-6
0.522	4.107e-5	-7.694e-6
0.528	4.121e-5	-7.689e-6
0.534	4.144e-5	-7.680e-6
0.540	4.164e-5	-7.690e-6
0.546	4.181e-5	-7.689e-6
0.552	4.206e-5	-7.690e-6
0.558	4.241e-5	-7.690e-6
0.564	4.281e-5	-7.700e-6
0.570	4.314e-5	-7.709e-6
0.576	4.355e-5	-7.698e-6
0.582	4.406e-5	-7.708e-6
0.588	4.462e-5	-7.707e-6
0.594	4.516e-5	-7.709e-6
0.600	4.574e-5	-7.698e-6
0.606	4.646e-5	-7.713e-6
0.612	4.722e-5	-7.703e-6
0.618	4.801e-5	-7.705e-6
0.624	4.874e-5	-7.701e-6
0.630	4.957e-5	-7.702e-6
0.636	5.044e-5	-7.691e-6
0.642	5.124e-5	-7.691e-6
0.648	5.200e-5	-7.698e-6
0.654	5.283e-5	-7.690e-6
0.660	5.362e-5	-7.700e-6
0.666	5.434e-5	-7.704e-6
0.672	5.500e-5	-7.703e-6
0.678	5.577e-5	-7.705e-6
0.684	5.649e-5	-7.699e-6
0.690	5.714e-5	-7.715e-6
0.696	5.781e-5	-7.708e-6
0.702	5.854e-5	-7.718e-6
0.708	5.932e-5	-7.712e-6
0.714	6.002e-5	-7.723e-6
0.720	6.083e-5	-7.699e-6
0.726	6.164e-5	-7.709e-6
0.732	6.245e-5	-7.711e-6
0.738	6.321e-5	-7.708e-6
0.744	6.407e-5	-7.720e-6
0.750	6.502e-5	-7.711e-6
0.756	6.602e-5	-7.700e-6
0.762	6.702e-5	-7.720e-6
0.768	6.812e-5	-7.715e-6
0.774	6.916e-5	-7.721e-6
0.780	7.039e-5	-7.676e-6
0.786	7.162e-5	-7.670e-6
0.792	7.292e-5	-7.682e-6
0.798	7.433e-5	-7.661e-6
0.804	7.579e-5	-7.688e-6
0.810	7.727e-5	-7.692e-6
0.816	7.879e-5	-7.695e-6
0.822	8.054e-5	-7.684e-6
0.828	8.212e-5	-7.687e-6
0.834	8.379e-5	-7.690e-6
0.840	8.558e-5	-7.689e-6
0.846	8.750e-5	-7.706e-6
0.852	8.953e-5	-7.701e-6
0.858	9.160e-5	-7.694e-6
0.864	9.375e-5	-7.694e-6
0.870	9.620e-5	-7.700e-6
0.876	9.875e-5	-7.701e-6
0.882	1.014e-4	-7.707e-6
0.888	1.042e-4	-7.713e-6
0.894	1.071e-4	-7.710e-6
0.900	1.038e-4	-7.712e-6
0.894	5.994e-5	-7.718e-6
0.888	4.707e-5	-7.701e-6
0.882	3.813e-5	-7.708e-6
0.876	3.132e-5	-7.688e-6
0.870	2.577e-5	-7.716e-6
0.864	2.116e-5	-7.707e-6
0.858	1.725e-5	-7.702e-6
0.852	1.392e-5	-7.695e-6
0.846	1.112e-5	-7.705e-6
0.840	8.651e-6	-7.708e-6
0.834	6.435e-6	-7.699e-6
0.828	4.430e-6	-7.704e-6
0.822	2.702e-6	-7.688e-6
0.816	1.045e-6	-7.697e-6
0.810	-3.600e-7	-7.703e-6
0.804	-1.674e-6	-7.702e-6
0.798	-2.805e-6	-7.699e-6
0.792	-3.863e-6	-7.709e-6
0.786	-4.806e-6	-7.692e-6
0.780	-5.762e-6	-7.690e-6
0.774	-6.567e-6	-7.691e-6
0.768	-7.404e-6	-7.687e-6
0.762	-8.131e-6	-7.695e-6
0.756	-8.784e-6	-7.739e-6
0.750	-9.366e-6	-7.775e-6
0.744	-9.940e-6	-7.798e-6
0.738	-1.049e-5	-7.785e-6
0.732	-1.104e-5	-7.787e-6
0.726	-1.145e-5	-7.776e-6
0.720	-1.193e-5	-7.784e-6
0.714	-1.238e-5	-7.782e-6
0.708	-1.276e-5	-7.774e-6
0.702	-1.303e-5	-7.776e-6
0.696	-1.341e-5	-7.772e-6
0.690	-1.374e-5	-7.775e-6
0.684	-1.406e-5	-7.779e-6
0.678	-1.432e-5	-7.778e-6
0.672	-1.458e-5	-7.781e-6
0.666	-1.486e-5	-7.785e-6
0.660	-1.509e-5	-7.785e-6
0.654	-1.527e-5	-7.781e-6
0.648	-1.556e-5	-7.776e-6
0.642	-1.581e-5	-7.776e-6
0.636	-1.604e-5	-7.774e-6
0.630	-1.619e-5	-7.774e-6
0.624	-1.638e-5	-7.767e-6
0.618	-1.661e-5	-7.774e-6
0.612	-1.691e-5	-7.776e-6
0.606	-1.703e-5	-7.773e-6
0.600	-1.723e-5	-7.779e-6
0.594	-1.745e-5	-7.778e-6
0.588	-1.765e-5	-7.773e-6
0.582	-1.777e-5	-7.774e-6
0.576	-1.796e-5	-7.775e-6
0.570	-1.814e-5	-7.763e-6
0.564	-1.834e-5	-7.772e-6
0.558	-1.848e-5	-7.776e-6
0.552	-1.867e-5	-7.775e-6
0.546	-1.884e-5	-7.780e-6
0.540	-1.903e-5	-7.789e-6
0.534	-1.915e-5	-7.781e-6
0.528	-1.933e-5	-7.781e-6
0.522	-1.951e-5	-7.778e-6
0.516	-1.973e-5	-7.778e-6
0.510	-1.991e-5	-7.780e-6
0.504	-2.007e-5	-7.776e-6
0.498	-2.026e-5	-7.781e-6
0.492	-2.045e-5	-7.777e-6
0.486	-2.060e-5	-7.777e-6
0.480	-2.077e-5	-7.761e-6
0.474	-2.096e-5	-7.782e-6
0.468	-2.115e-5	-7.774e-6
0.462	-2.127e-5	-7.781e-6
0.456	-2.145e-5	-7.769e-6
0.450	-2.161e-5	-7.772e-6
0.444	-2.181e-5	-7.771e-6
0.438	-2.196e-5	-7.768e-6
0.432	-2.214e-5	-7.764e-6
0.426	-2.231e-5	-7.769e-6
0.420	-2.250e-5	-7.764e-6
0.414	-2.264e-5	-7.766e-6
0.408	-2.295e-5	-7.774e-6
0.402	-2.305e-5	-7.784e-6
0.396	-2.322e-5	-7.766e-6
0.390	-2.329e-5	-7.777e-6
0.384	-2.340e-5	-7.770e-6
0.378	-2.351e-5	-7.764e-6
0.372	-2.361e-5	-7.776e-6
0.366	-2.363e-5	-7.774e-6
0.360	-2.368e-5	-7.773e-6
0.354	-2.370e-5	-7.771e-6
0.348	-2.374e-5	-7.777e-6
0.342	-2.371e-5	-7.768e-6
0.336	-2.375e-5	-7.772e-6
0.330	-2.374e-5	-7.781e-6
0.324	-2.381e-5	-7.775e-6
0.318	-2.379e-5	-7.772e-6
0.312	-2.384e-5	-7.773e-6
0.306	-2.395e-5	-7.774e-6
0.300	-2.402e-5	-7.770e-6
0.294	-2.408e-5	-7.771e-6
0.288	-2.420e-5	-7.767e-6
0.282	-2.431e-5	-7.773e-6
0.276	-2.445e-5	-7.771e-6
0.270	-2.456e-5	-7.774e-6
0.264	-2.470e-5	-7.784e-6
0.258	-2.484e-5	-7.767e-6
0.252	-2.502e-5	-7.763e-6
0.246	-2.516e-5	-7.771e-6
0.240	-2.532e-5	-7.769e-6
0.234	-2.550e-5	-7.768e-6
0.228	-2.564e-5	-7.770e-6
0.222	-2.581e-5	-7.767e-6
0.216	-2.599e-5	-7.760e-6
0.210	-2.616e-5	-7.761e-6
0.204	-2.645e-5	-7.769e-6
0.198	-2.651e-5	-7.776e-6
0.192	-2.667e-5	-7.777e-6
0.186	-2.685e-5	-7.762e-6
0.180	-2.703e-5	-7.765e-6
0.174	-2.715e-5	-7.764e-6
0.168	-2.734e-5	-7.766e-6
0.162	-2.752e-5	-7.757e-6
0.156	-2.770e-5	-7.769e-6
0.150	-2.786e-5	-7.758e-6
0.144	-2.802e-5	-7.790e-6
0.138	-2.822e-5	-7.765e-6
0.132	-2.845e-5	-7.783e-6
0.126	-2.856e-5	-7.769e-6
0.120	-2.875e-5	-7.778e-6
0.114	-2.894e-5	-7.769e-6
0.108	-2.915e-5	-7.775e-6
0.102	-2.936e-5	-7.777e-6
0.096	-2.953e-5	-7.783e-6
0.090	-2.973e-5	-7.776e-6
0.084	-2.994e-5	-7.778e-6
0.078	-3.011e-5	-7.783e-6
0.072	-3.026e-5	-7.786e-6
0.066	-3.048e-5	-7.772e-6
0.060	-3.070e-5	-7.771e-6
0.054	-3.086e-5	-7.763e-6
0.048	-3.105e-5	-7.768e-6
0.042	-3.124e-5	-7.774e-6
0.036	-3.146e-5	-7.769e-6
0.030	-3.160e-5	-7.774e-6
0.024	-3.173e-5	-7.777e-6
0.018	-3.189e-5	-7.760e-6
0.012	-3.206e-5	-7.759e-6
0.006	-3.216e-5	-7.757e-6
0.000	-3.248e-5	-7.764e-6
-0.006	-3.246e-5	-7.769e-6
-0.012	-3.255e-5	-7.770e-6
-0.018	-3.260e-5	-7.777e-6
-0.024	-3.263e-5	-7.771e-6
-0.030	-3.268e-5	-7.764e-6
-0.036	-3.272e-5	-7.770e-6
-0.042	-3.269e-5	-7.763e-6
-0.048	-3.267e-5	-7.752e-6
-0.054	-3.264e-5	-7.770e-6
-0.060	-3.263e-5	-7.769e-6
-0.066	-3.253e-5	-7.769e-6
-0.072	-3.244e-5	-7.781e-6
-0.078	-3.236e-5	-7.769e-6
-0.084	-3.229e-5	-7.767e-6
-0.090	-3.214e-5	-7.762e-6
-0.096	-3.202e-5	-7.769e-6
-0.102	-3.190e-5	-7.773e-6
-0.108	-3.179e-5	-7.771e-6
-0.114	-3.167e-5	-7.778e-6
-0.120	-3.157e-5	-7.769e-6
-0.126	-3.145e-5	-7.781e-6
-0.132	-3.139e-5	-7.783e-6
-0.138	-3.127e-5	-7.774e-6
-0.144	-3.120e-5	-7.781e-6
-0.150	-3.116e-5	-7.773e-6
-0.156	-3.114e-5	-7.773e-6
-0.162	-3.110e-5	-7.779e-6
-0.168	-3.112e-5	-7.777e-6
-0.174	-3.118e-5	-7.770e-6
-0.180	-3.130e-5	-7.769e-6
-0.186	-3.141e-5	-7.769e-6
-0.192	-3.157e-5	-7.772e-6
-0.198	-3.181e-5	-7.761e-6
-0.204	-3.213e-5	-7.764e-6
-0.210	-3.244e-5	-7.768e-6
-0.216	-3.280e-5	-7.780e-6
-0.222	-3.324e-5	-7.764e-6
-0.228	-3.375e-5	-7.774e-6
-0.234	-3.429e-5	-7.766e-6
-0.240	-3.489e-5	-7.784e-6
-0.246	-3.555e-5	-7.769e-6
-0.252	-3.629e-5	-7.769e-6
-0.258	-3.705e-5	-7.765e-6
-0.264	-3.790e-5	-7.768e-6
-0.270	-3.880e-5	-7.774e-6
-0.276	-3.978e-5	-7.771e-6
-0.282	-4.075e-5	-7.767e-6
-0.288	-4.184e-5	-7.756e-6
-0.294	-4.292e-5	-7.763e-6
-0.300	-4.410e-5	-7.760e-6
-0.306	-4.529e-5	-7.747e-6
-0.312	-4.650e-5	-7.749e-6
-0.318	-4.775e-5	-7.751e-6
-0.324	-4.903e-5	-7.777e-6
-0.330	-5.029e-5	-7.775e-6
-0.336	-5.163e-5	-7.762e-6
-0.342	-5.297e-5	-7.767e-6
-0.348	-5.442e-5	-7.771e-6
-0.354	-5.581e-5	-7.764e-6
-0.360	-5.729e-5	-7.755e-6
-0.366	-5.882e-5	-7.770e-6
-0.372	-6.040e-5	-7.757e-6
-0.378	-6.190e-5	-7.751e-6
-0.384	-6.345e-5	-7.761e-6
-0.390	-6.502e-5	-7.754e-6
-0.396	-6.666e-5	-7.757e-6
-0.402	-6.825e-5	-7.763e-6
-0.408	-6.987e-5	-7.762e-6
-0.414	-7.154e-5	-7.765e-6
-0.420	-7.325e-5	-7.766e-6
-0.426	-7.481e-5	-7.763e-6
-0.432	-7.643e-5	-7.759e-6
-0.438	-7.802e-5	-7.759e-6
-0.444	-7.965e-5	-7.755e-6
-0.450	-8.118e-5	-7.748e-6
-0.456	-8.272e-5	-7.750e-6
-0.462	-8.425e-5	-7.746e-6
-0.468	-8.579e-5	-7.749e-6
-0.474	-8.720e-5	-7.752e-6
-0.480	-8.858e-5	-7.794e-6
-0.486	-8.989e-5	-7.789e-6
-0.492	-9.122e-5	-7.784e-6
-0.498	-9.244e-5	-7.781e-6
-0.504	-9.363e-5	-7.781e-6
-0.510	-9.477e-5	-7.789e-6
-0.516	-9.591e-5	-7.765e-6
-0.522	-9.690e-5	-7.769e-6
-0.528	-9.787e-5	-7.772e-6
-0.534	-9.879e-5	-7.779e-6
-0.540	-9.966e-5	-7.777e-6
-0.546	-1.004e-4	-7.769e-6
-0.552	-1.012e-4	-7.773e-6
-0.558	-1.019e-4	-7.772e-6
-0.564	-1.025e-4	-7.766e-6
-0.570	-1.031e-4	-7.773e-6
-0.576	-1.036e-4	-7.768e-6
-0.582	-1.041e-4	-7.769e-6
-0.588	-1.046e-4	-7.768e-6
-0.594	-1.050e-4	-7.753e-6
-0.600	-1.022e-4	-7.757e-6
-0.594	-8.594e-5	-7.726e-6
-0.588	-7.677e-5	-7.742e-6
-0.582	-6.957e-5	-7.762e-6
-0.576	-6.363e-5	-7.752e-6
-0.570	-5.839e-5	-7.766e-6
-0.564	-5.372e-5	-7.768e-6
-0.558	-4.954e-5	-7.766e-6
-0.552	-4.583e-5	-7.744e-6
-0.546	-4.226e-5	-7.734e-6
-0.540	-3.900e-5	-7.758e-6
-0.534	-3.600e-5	-7.757e-6
-0.528	-3.325e-5	-7.759e-6
-0.522	-3.057e-5	-7.768e-6
-0.516	-2.803e-5	-7.743e-6
-0.510	-2.565e-5	-7.759e-6
-0.504	-2.345e-5	-7.755e-6
-0.498	-2.131e-5	-7.759e-6
-0.492	-1.921e-5	-7.761e-6
-0.486	-1.726e-5	-7.766e-6
-0.480	-1.539e-5	-7.768e-6
-0.474	-1.358e-5	-7.765e-6
-0.468	-1.183e-5	-7.764e-6
-0.462	-1.018e-5	-7.772e-6
-0.456	-8.575e-6	-7.704e-6
-0.450	-7.015e-6	-7.680e-6
-0.444	-5.476e-6	-7.690e-6
-0.438	-4.019e-6	-7.686e-6
-0.432	-2.626e-6	-7.686e-6
-0.426	-1.240e-6	-7.691e-6
-0.420	7.991e-8	-7.696e-6
-0.414	1.362e-6	-7.691e-6
-0.408	2.622e-6	-7.675e-6
-0.402	3.841e-6	-7.685e-6
-0.396	5.021e-6	-7.687e-6
-0.390	6.130e-6	-7.692e-6
-0.384	7.173e-6	-7.702e-6
-0.378	8.254e-6	-7.697e-6
-0.372	9.359e-6	-7.700e-6
-0.366	1.034e-5	-7.712e-6
-0.360	1.127e-5	-7.690e-6
-0.354	1.224e-5	-7.677e-6
-0.348	1.318e-5	-7.701e-6
-0.342	1.402e-5	-7.695e-6
-0.336	1.480e-5	-7.695e-6
-0.330	1.557e-5	-7.704e-6
-0.324	1.637e-5	-7.695e-6
-0.318	1.708e-5	-7.693e-6
-0.312	1.779e-5	-7.691e-6
-0.306	1.849e-5	-7.705e-6
-0.300	1.915e-5	-7.707e-6
-0.294	1.976e-5	-7.706e-6
-0.288	2.034e-5	-7.701e-6
-0.282	2.089e-5	-7.698e-6
-0.276	2.153e-5	-7.697e-6
-0.270	2.212e-5	-7.696e-6
-0.264	2.261e-5	-7.707e-6
-0.258	2.311e-5	-7.706e-6
-0.252	2.360e-5	-7.705e-6
-0.246	2.406e-5	-7.710e-6
-0.240	2.448e-5	-7.705e-6
-0.234	2.494e-5	-7.711e-6
-0.228	2.541e-5	-7.708e-6
-0.222	2.582e-5	-7.708e-6
-0.216	2.618e-5	-7.711e-6
-0.210	2.655e-5	-7.703e-6
-0.204	2.693e-5	-7.709e-6
-0.198	2.724e-5	-7.710e-6
-0.192	2.753e-5	-7.706e-6
-0.186	2.787e-5	-7.712e-6
-0.180	2.822e-5	-7.707e-6
-0.174	2.853e-5	-7.715e-6
-0.168	2.880e-5	-7.714e-6
-0.162	2.912e-5	-7.713e-6
-0.156	2.942e-5	-7.715e-6
-0.150	2.966e-5	-7.717e-6
-0.144	2.988e-5	-7.719e-6
-0.138	3.020e-5	-7.713e-6
-0.132	3.057e-5	-7.700e-6
-0.126	3.095e-5	-7.688e-6
-0.120	3.129e-5	-7.688e-6
-0.114	3.169e-5	-7.682e-6
-0.108	3.204e-5	-7.684e-6
-0.102	3.241e-5	-7.689e-6
-0.096	3.274e-5	-7.691e-6
-0.090	3.307e-5	-7.685e-6
-0.084	3.338e-5	-7.692e-6
-0.078	3.373e-5	-7.686e-6
-0.072	3.413e-5	-7.694e-6
-0.066	3.449e-5	-7.700e-6
-0.060	3.490e-5	-7.691e-6
-0.054	3.534e-5	-7.691e-6
-0.048	3.573e-5	-7.693e-6
-0.042	3.613e-5	-7.692e-6
-0.036	3.671e-5	-7.692e-6
-0.030	3.715e-5	-7.693e-6
-0.024	3.759e-5	-7.698e-6
-0.018	3.810e-5	-7.700e-6
-0.012	3.862e-5	-7.701e-6
-0.006	3.911e-5	-7.699e-6
-0.000	3.973e-5	-7.696e-6
0.006	4.018e-5	-7.693e-6
0.012	4.082e-5	-7.681e-6
0.018	4.142e-5	-7.689e-6
0.024	4.191e-5	-7.689e-6
0.030	4.249e-5	-7.688e-6
0.036	4.315e-5	-7.693e-6
0.042	4.375e-5	-7.697e-6
0.048	4.431e-5	-7.686e-6
0.054	4.488e-5	-7.699e-6
0.060	4.560e-5	-7.698e-6
0.066	4.624e-5	-7.690e-6
0.072	4.694e-5	-7.701e-6
0.078	4.766e-5	-7.704e-6
0.084	4.838e-5	-7.702e-6
0.090	4.905e-5	-7.711e-6
0.096	4.967e-5	-7.708e-6
0.102	5.036e-5	-7.696e-6
0.108	5.106e-5	-7.699e-6
0.114	5.165e-5	-7.705e-6
0.120	5.224e-5	-7.698e-6
0.126	5.289e-5	-7.693e-6
0.132	5.347e-5	-7.698e-6
0.138	5.393e-5	-7.714e-6
0.144	5.433e-5	-7.708e-6
0.150	5.465e-5	-7.698e-6
0.156	5.482e-5	-7.703e-6
0.162	5.483e-5	-7.702e-6
0.168	5.467e-5	-7.705e-6
0.174	5.438e-5	-7.705e-6
0.180	5.390e-5	-7.703e-6
0.186	5.330e-5	-7.699e-6
0.192	5.255e-5	-7.701e-6
0.198	5.182e-5	-7.700e-6
0.204	5.111e-5	-7.690e-6
0.210	5.043e-5	-7.698e-6
0.216	4.971e-5	-7.705e-6
0.222	4.912e-5	-7.710e-6
0.228	4.857e-5	-7.706e-6
0.234	4.801e-5	-7.708e-6
0.240	4.751e-5	-7.708e-6
0.246	4.715e-5	-7.701e-6
0.252	4.689e-5	-7.710e-6
0.258	4.664e-5	-7.710e-6
0.264	4.640e-5	-7.705e-6
0.270	4.621e-5	-7.699e-6
0.276	4.608e-5	-7.699e-6
0.282	4.588e-5	-7.711e-6
0.288	4.568e-5	-7.709e-6
0.294	4.553e-5	-7.710e-6
0.300	4.538e-5	-7.709e-6
0.306	4.520e-5	-7.708e-6
0.312	4.508e-5	-7.707e-6
0.318	4.498e-5	-7.695e-6
0.324	4.489e-5	-7.705e-6
0.330	4.478e-5	-7.703e-6
0.336	4.458e-5	-7.702e-6
0.342	4.447e-5	-7.701e-6
0.348	4.435e-5	-7.699e-6
0.354	4.416e-5	-7.704e-6
0.360	4.393e-5	-7.703e-6
0.366	4.376e-5	-7.704e-6
0.372	4.360e-5	-7.706e-6
0.378	4.331e-5	-7.706e-6
0.384	4.301e-5	-7.703e-6
0.390	4.280e-5	-7.707e-6
0.396	4.263e-5	-7.707e-6
0.402	4.234e-5	-7.701e-6
0.408	4.206e-5	-7.713e-6
0.414	4.194e-5	-7.691e-6
0.420	4.174e-5	-7.681e-6
0.426	4.154e-5	-7.690e-6
0.432	4.135e-5	-7.688e-6
0.438	4.119e-5	-7.691e-6
0.444	4.110e-5	-7.695e-6
0.450	4.092e-5	-7.685e-6
0.456	4.074e-5	-7.682e-6
0.462	4.071e-5	-7.686e-6
0.468	4.061e-5	-7.692e-6
0.474	4.054e-5	-7.686e-6
0.480	4.050e-5	-7.693e-6
0.486	4.052e-5	-7.698e-6
0.492	4.056e-5	-7.696e-6
0.498	4.055e-5	-7.700e-6
0.504	4.060e-5	-7.693e-6
0.510	4.068e-5	-7.690e-6
0.516	4.084e-5	-7.688e-6
0.522	4.090e-5	-7.692e-6
0.528	4.098e-5	-7.688e-6
0.534	4.120e-5	-7.685e-6
0.540	4.142e-5	-7.687e-6
0.546	4.162e-5	-7.689e-6
0.552	4.181e-5	-7.697e-6
0.558	4.216e-5	-7.697e-6
0.564	4.258e-5	-7.698e-6
0.570	4.291e-5	-7.698e-6
0.576	4.330e-5	-7.699e-6
0.582	4.380e-5	-7.699e-6
0.588	4.434e-5	-7.704e-6
0.594	4.487e-5	-7.710e-6
0.600	4.546e-5	-7.704e-6
0.606	4.616e-5	-7.705e-6
0.612	4.686e-5	-7.710e-6
0.618	4.762e-5	-7.719e-6
0.624	4.833e-5	-7.707e-6
0.630	4.918e-5	-7.715e-6
0.636	5.002e-5	-7.709e-6
0.642	5.079e-5	-7.694e-6
0.648	5.151e-5	-7.699e-6
0.654	5.230e-5	-7.700e-6
0.660	5.308e-5	-7.699e-6
0.666	5.379e-5	-7.707e-6
0.672	5.445e-5	-7.708e-6
0.678	5.515e-5	-7.710e-6
0.684	5.585e-5	-7.708e-6
0.690	5.647e-5	-7.703e-6
0.696	5.712e-5	-7.712e-6
0.702	5.780e-5	-7.706e-6
0.708	5.852e-5	-7.715e-6
0.714	5.922e-5	-7.714e-6
0.720	5.993e-5	-7.713e-6
0.726	6.072e-5	-7.707e-6
0.732	6.155e-5	-7.710e-6
0.738	6.233e-5	-7.706e-6
0.744	6.312e-5	-7.713e-6
0.750	6.402e-5	-7.714e-6
0.756	6.494e-5	-7.713e-6
0.762	6.584e-5	-7.713e-6
0.768	6.684e-5	-7.716e-6
0.774	6.790e-5	-7.717e-6
0.780	6.896e-5	-7.717e-6
0.786	7.002e-5	-7.699e-6
0.792	7.113e-5	-7.681e-6
0.798	7.231e-5	-7.686e-6
0.804	7.357e-5	-7.686e-6
0.810	7.485e-5	-7.698e-6
0.816	7.615e-5	-7.686e-6
0.822	7.781e-5	-7.684e-6
0.828	7.927e-5	-7.690e-6
0.834	8.075e-5	-7.680e-6
0.840	8.229e-5	-7.689e-6
0.846	8.402e-5	-7.692e-6
0.852	8.580e-5	-7.690e-6
0.858	8.767e-5	-7.699e-6
0.864	8.960e-5	-7.690e-6
0.870	9.179e-5	-7.683e-6
0.876	9.410e-5	-7.690e-6
0.882	9.655e-5	-7.690e-6
0.888	9.913e-5	-7.707e-6
0.894	1.020e-4	-7.702e-6
0.900	9.857e-5	-7.713e-6
0.894	5.584e-5	-7.712e-6
0.888	4.397e-5	-7.709e-6
0.882	3.573e-5	-7.706e-6
0.876	2.936e-5	-7.739e-6
0.870	2.416e-5	-7.715e-6
0.864	1.983e-5	-7.730e-6
0.858	1.609e-5	-7.708e-6
0.852	1.301e-5	-7.711e-6
0.846	1.033e-5	-7.716e-6
0.840	7.990e-6	-7.713e-6
0.834	5.890e-6	-7.713e-6
0.828	4.003e-6	-7.711e-6
0.822	2.335e-6	-7.708e-6
0.816	7.176e-7	-7.717e-6
0.810	-6.444e-7	-7.714e-6
0.804	-1.915e-6	-7.707e-6
0.798	-3.017e-6	-7.705e-6
0.792	-4.072e-6	-7.707e-6
0.786	-5.088e-6	-7.704e-6
0.780	-5.997e-6	-7.692e-6
0.774	-6.735e-6	-7.707e-6
0.768	-7.540e-6	-7.692e-6
0.762	-8.240e-6	-7.692e-6
0.756	-8.886e-6	-7.744e-6
0.750	-9.404e-6	-7.787e-6
0.744	-9.954e-6	-7.786e-6
0.738	-1.048e-5	-7.793e-6
0.732	-1.098e-5	-7.782e-6
0.726	-1.137e-5	-7.777e-6
0.720	-1.183e-5	-7.778e-6
0.714	-1.226e-5	-7.771e-6
0.708	-1.265e-5	-7.784e-6
0.702	-1.294e-5	-7.781e-6
0.696	-1.327e-5	-7.782e-6
0.690	-1.360e-5	-7.775e-6
0.684	-1.392e-5	-7.781e-6
0.678	-1.417e-5	-7.783e-6
0.672	-1.448e-5	-7.778e-6
0.666	-1.475e-5	-7.780e-6
0.660	-1.497e-5	-7.784e-6
0.654	-1.523e-5	-7.780e-6
0.648	-1.547e-5	-7.777e-6
0.642	-1.570e-5	-7.776e-6
0.636	-1.591e-5	-7.769e-6
0.630	-1.608e-5	-7.777e-6
0.624	-1.628e-5	-7.773e-6
0.618	-1.649e-5	-7.774e-6
0.612	-1.675e-5	-7.772e-6
0.606	-1.684e-5	-7.768e-6
0.600	-1.701e-5	-7.779e-6
0.594	-1.722e-5	-7.776e-6
0.588	-1.744e-5	-7.762e-6
0.582	-1.759e-5	-7.769e-6
0.576	-1.775e-5	-7.767e-6
0.570	-1.793e-5	-7.770e-6
0.564	-1.815e-5	-7.778e-6
0.558	-1.829e-5	-7.769e-6
0.552	-1.847e-5	-7.775e-6
0.546	-1.864e-5	-7.776e-6
0.540	-1.883e-5	-7.782e-6
0.534	-1.895e-5	-7.776e-6
0.528	-1.915e-5	-7.777e-6
0.522	-1.934e-5	-7.782e-6
0.516	-1.955e-5	-7.780e-6
0.510	-1.972e-5	-7.774e-6
0.504	-1.991e-5	-7.782e-6
0.498	-2.008e-5	-7.775e-6
0.492	-2.025e-5	-7.777e-6
0.486	-2.039e-5	-7.772e-6
0.480	-2.061e-5	-7.784e-6
0.474	-2.080e-5	-7.777e-6
0.468	-2.098e-5	-7.770e-6
0.462	-2.112e-5	-7.775e-6
0.456	-2.130e-5	-7.774e-6
0.450	-2.149e-5	-7.766e-6
0.444	-2.168e-5	-7.770e-6
0.438	-2.181e-5	-7.768e-6
0.432	-2.199e-5	-7.766e-6
0.426	-2.219e-5	-7.770e-6
0.420	-2.238e-5	-7.765e-6
0.414	-2.250e-5	-7.771e-6
0.408	-2.280e-5	-7.767e-6
0.402	-2.288e-5	-7.767e-6
0.396	-2.306e-5	-7.763e-6
0.390	-2.316e-5	-7.768e-6
0.384	-2.329e-5	-7.766e-6
0.378	-2.342e-5	-7.771e-6
0.372	-2.353e-5	-7.772e-6
0.366	-2.355e-5	-7.769e-6
0.360	-2.361e-5	-7.764e-6
0.354	-2.362e-5	-7.765e-6
0.348	-2.368e-5	-7.774e-6
0.342	-2.364e-5	-7.769e-6
0.336	-2.366e-5	-7.766e-6
0.330	-2.366e-5	-7.766e-6
0.324	-2.370e-5	-7.773e-6
0.318	-2.368e-5	-7.758e-6
0.312	-2.375e-5	-7.769e-6
0.306	-2.385e-5	-7.765e-6
0.300	-2.394e-5	-7.774e-6
0.294	-2.399e-5	-7.769e-6
0.288	-2.408e-5	-7.773e-6
0.282	-2.419e-5	-7.769e-6
0.276	-2.432e-5	-7.794e-6
0.270	-2.442e-5	-7.769e-6
0.264	-2.456e-5	-7.770e-6
0.258	-2.473e-5	-7.762e-6
0.252	-2.490e-5	-7.767e-6
0.246	-2.501e-5	-7.758e-6
0.240	-2.518e-5	-7.763e-6
0.234	-2.536e-5	-7.761e-6
0.228	-2.554e-5	-7.765e-6
0.222	-2.568e-5	-7.765e-6
0.216	-2.584e-5	-7.754e-6
0.210	-2.603e-5	-7.763e-6
0.204	-2.633e-5	-7.760e-6
0.198	-2.639e-5	-7.756e-6
0.192	-2.656e-5	-7.761e-6
0.186	-2.673e-5	-7.754e-6
0.180	-2.693e-5	-7.757e-6
0.174	-2.706e-5	-7.761e-6
0.168	-2.724e-5	-7.757e-6
0.162	-2.741e-5	-7.760e-6
0.156	-2.760e-5	-7.761e-6
0.150	-2.774e-5	-7.758e-6
0.144	-2.792e-5	-7.760e-6
0.138	-2.810e-5	-7.762e-6
0.132	-2.832e-5	-7.769e-6
0.126	-2.842e-5	-7.761e-6
0.120	-2.862e-5	-7.775e-6
0.114	-2.880e-5	-7.767e-6
0.108	-2.901e-5	-7.777e-6
0.102	-2.921e-5	-7.775e-6
0.096	-2.937e-5	-7.770e-6
0.090	-2.955e-5	-7.770e-6
0.084	-2.977e-5	-7.773e-6
0.078	-2.992e-5	-7.777e-6
0.072	-3.007e-5	-7.769e-6
0.066	-3.027e-5	-7.775e-6
0.060	-3.047e-5	-7.769e-6
0.054	-3.061e-5	-7.772e-6
0.048	-3.080e-5	-7.769e-6
0.042	-3.098e-5	-7.759e-6
0.036	-3.118e-5	-7.764e-6
0.030	-3.133e-5	-7.765e-6
0.024	-3.143e-5	-7.746e-6
0.018	-3.158e-5	-7.754e-6
0.012	-3.175e-5	-7.757e-6
0.006	-3.184e-5	-7.759e-6
0.000	-3.216e-5	-7.759e-6
-0.006	-3.216e-5	-7.769e-6
-0.012	-3.224e-5	-7.768e-6
-0.018	-3.225e-5	-7.765e-6
-0.024	-3.230e-5	-7.770e-6
-0.030	-3.234e-5	-7.774e-6
-0.036	-3.237e-5	-7.769e-6
-0.042	-3.233e-5	-7.769e-6
-0.048	-3.229e-5	-7.762e-6
-0.054	-3.227e-5	-7.767e-6
-0.060	-3.223e-5	-7.764e-6
-0.066	-3.211e-5	-7.759e-6
-0.072	-3.203e-5	-7.738e-6
-0.078	-3.193e-5	-7.768e-6
-0.084	-3.186e-5	-7.764e-6
-0.090	-3.172e-5	-7.766e-6
-0.096	-3.159e-5	-7.768e-6
-0.102	-3.149e-5	-7.772e-6
-0.108	-3.137e-5	-7.772e-6
-0.114	-3.122e-5	-7.772e-6
-0.120	-3.107e-5	-7.767e-6
-0.126	-3.095e-5	-7.771e-6
-0.132	-3.082e-5	-7.770e-6
-0.138	-3.071e-5	-7.767e-6
-0.144	-3.061e-5	-7.766e-6
-0.150	-3.051e-5	-7.769e-6
-0.156	-3.050e-5	-7.769e-6
-0.162	-3.045e-5	-7.769e-6
-0.168	-3.044e-5	-7.768e-6
-0.174	-3.046e-5	-7.767e-6
-0.180	-3.055e-5	-7.768e-6
-0.186	-3.062e-5	-7.762e-6
-0.192	-3.075e-5	-7.765e-6
-0.198	-3.094e-5	-7.771e-6
-0.204	-3.121e-5	-7.773e-6
-0.210	-3.149e-5	-7.765e-6
-0.216	-3.182e-5	-7.765e-6
-0.222	-3.220e-5	-7.769e-6
-0.228	-3.269e-5	-7.763e-6
-0.234	-3.320e-5	-7.762e-6
-0.240	-3.376e-5	-7.767e-6
-0.246	-3.440e-5	-7.767e-6
-0.252	-3.512e-5	-7.775e-6
-0.258	-3.584e-5	-7.760e-6
-0.264	-3.663e-5	-7.760e-6
-0.270	-3.751e-5	-7.765e-6
-0.276	-3.846e-5	-7.758e-6
-0.282	-3.940e-5	-7.769e-6
-0.288	-4.043e-5	-7.762e-6
-0.294	-4.155e-5	-7.758e-6
-0.300	-4.270e-5	-7.769e-6
-0.306	-4.386e-5	-7.761e-6
-0.312	-4.511e-5	-7.755e-6
-0.318	-4.637e-5	-7.774e-6
-0.324	-4.769e-5	-7.743e-6
-0.330	-4.899e-5	-7.782e-6
-0.336	-5.035e-5	-7.766e-6
-0.342	-5.178e-5	-7.770e-6
-0.348	-5.325e-5	-7.770e-6
-0.354	-5.469e-5	-7.766e-6
-0.360	-5.619e-5	-7.763e-6
-0.366	-5.774e-5	-7.762e-6
-0.372	-5.934e-5	-7.768e-6
-0.378	-6.090e-5	-7.756e-6
-0.384	-6.249e-5	-7.753e-6
-0.390	-6.411e-5	-7.752e-6
-0.396	-6.573e-5	-7.746e-6
-0.402	-6.736e-5	-7.742e-6
-0.408	-6.900e-5	-7.759e-6
-0.414	-7.070e-5	-7.755e-6
-0.420	-7.240e-5	-7.758e-6
-0.426	-7.401e-5	-7.753e-6
-0.432	-7.565e-5	-7.757e-6
-0.438	-7.725e-5	-7.753e-6
-0.444	-7.889e-5	-7.766e-6
-0.450	-8.043e-5	-7.741e-6
-0.456	-8.199e-5	-7.737e-6
-0.462	-8.350e-5	-7.745e-6
-0.468	-8.503e-5	-7.738e-6
-0.474	-8.645e-5	-7.738e-6
-0.480	-8.779e-5	-7.774e-6
-0.486	-8.912e-5	-7.778e-6
-0.492	-9.042e-5	-7.785e-6
-0.498	-9.163e-5	-7.777e-6
-0.504	-9.281e-5	-7.772e-6
-0.510	-9.391e-5	-7.778e-6
-0.516	-9.502e-5	-7.769e-6
-0.522	-9.600e-5	-7.771e-6
-0.528	-9.695e-5	-7.769e-6
-0.534	-9.784e-5	-7.775e-6
-0.540	-9.872e-5	-7.774e-6
-0.546	-9.946e-5	-7.781e-6
-0.552	-1.002e-4	-7.775e-6
-0.558	-1.008e-4	-7.766e-6
-0.564	-1.015e-4	-7.779e-6
-0.570	-1.020e-4	-7.769e-6
-0.576	-1.025e-4	-7.764e-6
-0.582	-1.030e-4	-7.772e-6
-0.588	-1.035e-4	-7.777e-6
-0.594	-1.038e-4	-7.771e-6
-0.599	-1.041e-4	-7.761e-6