File: data/cv/0620/1000 rpm cv.txt
June 20, 2016   17:21:11
Cyclic Voltammetry
File: c:\users\potentio2\desktop\suda\20160620\1000 rpm cv.txt
Data Source:  Experiment
Instrument Model:  CHI7082E
Header:
Note:

Init E (V) = 0
High E (V) = 0.9
Low E (V) = -0.6
Init P/N = P
Scan Rate (V/s) = 0.01
Segment = 6
Sample Interval (V) = 0.001
Quiet Time (sec) = 2
Sensitivity (A/V) = 0.001
Sens 2 (A/V) = 1e-6

Segment 1:

Segment 2:

Segment 3:
Ep = 0.127V
ip = 6.858e-6A
Ah = 6.810e-5C

Segment 4:

Segment 5:
Ep = 0.127V
ip = 4.556e-6A
Ah = 4.718e-5C

Segment 6:

Current 2:

Segment 1:

Segment 2:
Ep = 0.014V
ip = -3.683e-11A
Ah = -1.393e-10C

Segment 3:
Segment 4:
Ep = -0.039V
ip = -2.221e-11A
Ah = -4.340e-11C

Segment 5:
Segment 6:

Potential/V	i1/A	i2/A

0.000	2.215e-5	-7.501e-9
0.006	2.815e-5	-7.534e-9
0.012	2.914e-5	-7.544e-9
0.018	2.968e-5	-7.557e-9
0.024	3.004e-5	-7.567e-9
0.030	3.043e-5	-7.559e-9
0.036	3.083e-5	-7.555e-9
0.042	3.118e-5	-7.558e-9
0.048	3.152e-5	-7.548e-9
0.054	3.195e-5	-7.570e-9
0.060	3.236e-5	-7.556e-9
0.066	3.275e-5	-7.562e-9
0.072	3.305e-5	-7.571e-9
0.078	3.329e-5	-7.575e-9
0.084	3.358e-5	-7.578e-9
0.090	3.390e-5	-7.582e-9
0.096	3.423e-5	-7.578e-9
0.102	3.466e-5	-7.582e-9
0.108	3.492e-5	-7.582e-9
0.114	3.517e-5	-7.583e-9
0.120	3.541e-5	-7.588e-9
0.126	3.572e-5	-7.589e-9
0.132	3.606e-5	-7.602e-9
0.138	3.641e-5	-7.601e-9
0.144	3.678e-5	-7.598e-9
0.150	3.713e-5	-7.607e-9
0.156	3.754e-5	-7.618e-9
0.162	3.794e-5	-7.605e-9
0.168	3.837e-5	-7.606e-9
0.174	3.876e-5	-7.606e-9
0.180	3.916e-5	-7.620e-9
0.186	3.960e-5	-7.623e-9
0.192	4.010e-5	-7.614e-9
0.198	4.068e-5	-7.611e-9
0.204	4.126e-5	-7.601e-9
0.210	4.176e-5	-7.601e-9
0.216	4.221e-5	-7.609e-9
0.222	4.263e-5	-7.609e-9
0.228	4.301e-5	-7.618e-9
0.234	4.322e-5	-7.614e-9
0.240	4.339e-5	-7.630e-9
0.246	4.358e-5	-7.619e-9
0.252	4.375e-5	-7.627e-9
0.258	4.372e-5	-7.615e-9
0.264	4.369e-5	-7.629e-9
0.270	4.370e-5	-7.634e-9
0.276	4.374e-5	-7.623e-9
0.282	4.366e-5	-7.630e-9
0.288	4.360e-5	-7.640e-9
0.294	4.359e-5	-7.637e-9
0.300	4.364e-5	-7.632e-9
0.306	4.361e-5	-7.644e-9
0.312	4.363e-5	-7.638e-9
0.318	4.366e-5	-7.632e-9
0.324	4.371e-5	-7.633e-9
0.330	4.367e-5	-7.633e-9
0.336	4.363e-5	-7.642e-9
0.342	4.367e-5	-7.636e-9
0.348	4.368e-5	-7.645e-9
0.354	4.364e-5	-7.638e-9
0.360	4.355e-5	-7.638e-9
0.366	4.341e-5	-7.644e-9
0.372	4.328e-5	-7.649e-9
0.378	4.302e-5	-7.645e-9
0.384	4.273e-5	-7.645e-9
0.390	4.254e-5	-7.651e-9
0.396	4.225e-5	-7.643e-9
0.402	4.194e-5	-7.650e-9
0.408	4.158e-5	-7.639e-9
0.414	4.141e-5	-7.632e-9
0.420	4.115e-5	-7.639e-9
0.426	4.084e-5	-7.641e-9
0.432	4.060e-5	-7.635e-9
0.438	4.053e-5	-7.639e-9
0.444	4.046e-5	-7.644e-9
0.450	4.024e-5	-7.640e-9
0.456	4.011e-5	-7.646e-9
0.462	4.015e-5	-7.640e-9
0.468	4.008e-5	-7.649e-9
0.474	3.997e-5	-7.642e-9
0.480	3.983e-5	-7.647e-9
0.486	3.986e-5	-7.671e-9
0.492	3.990e-5	-7.650e-9
0.498	3.990e-5	-7.658e-9
0.504	3.996e-5	-7.659e-9
0.510	4.005e-5	-7.657e-9
0.516	4.020e-5	-7.651e-9
0.522	4.028e-5	-7.658e-9
0.528	4.036e-5	-7.654e-9
0.534	4.060e-5	-7.635e-9
0.540	4.082e-5	-7.652e-9
0.546	4.100e-5	-7.647e-9
0.552	4.118e-5	-7.649e-9
0.558	4.148e-5	-7.652e-9
0.564	4.186e-5	-7.659e-9
0.570	4.215e-5	-7.666e-9
0.576	4.251e-5	-7.662e-9
0.582	4.300e-5	-7.670e-9
0.588	4.354e-5	-7.675e-9
0.594	4.395e-5	-7.665e-9
0.600	4.446e-5	-7.660e-9
0.606	4.513e-5	-7.668e-9
0.612	4.578e-5	-7.667e-9
0.618	4.644e-5	-7.670e-9
0.624	4.709e-5	-7.681e-9
0.630	4.794e-5	-7.675e-9
0.636	4.877e-5	-7.672e-9
0.642	4.951e-5	-7.683e-9
0.648	5.024e-5	-7.675e-9
0.654	5.100e-5	-7.659e-9
0.660	5.188e-5	-7.675e-9
0.666	5.267e-5	-7.672e-9
0.672	5.340e-5	-7.667e-9
0.678	5.425e-5	-7.678e-9
0.684	5.510e-5	-7.670e-9
0.690	5.589e-5	-7.673e-9
0.696	5.658e-5	-7.680e-9
0.702	5.741e-5	-7.684e-9
0.708	5.826e-5	-7.680e-9
0.714	5.904e-5	-7.683e-9
0.720	5.980e-5	-7.679e-9
0.726	6.061e-5	-7.674e-9
0.732	6.145e-5	-7.680e-9
0.738	6.226e-5	-7.683e-9
0.744	6.298e-5	-7.678e-9
0.750	6.383e-5	-7.700e-9
0.756	6.470e-5	-7.694e-9
0.762	6.555e-5	-7.695e-9
0.768	6.639e-5	-7.694e-9
0.774	6.730e-5	-7.698e-9
0.780	6.827e-5	-7.699e-9
0.786	6.926e-5	-7.722e-9
0.792	7.030e-5	-7.661e-9
0.798	7.149e-5	-7.666e-9
0.804	7.275e-5	-7.657e-9
0.810	7.403e-5	-7.670e-9
0.816	7.538e-5	-7.663e-9
0.822	7.702e-5	-7.658e-9
0.828	7.860e-5	-7.662e-9
0.834	8.020e-5	-7.669e-9
0.840	8.192e-5	-7.667e-9
0.846	8.384e-5	-7.677e-9
0.852	8.587e-5	-7.674e-9
0.858	8.801e-5	-7.685e-9
0.864	9.026e-5	-7.668e-9
0.870	9.282e-5	-7.675e-9
0.876	9.530e-5	-7.669e-9
0.882	9.783e-5	-7.692e-9
0.888	1.006e-4	-7.677e-9
0.894	1.035e-4	-7.692e-9
0.900	9.998e-5	-7.702e-9
0.894	5.621e-5	-7.695e-9
0.888	4.336e-5	-7.702e-9
0.882	3.468e-5	-7.685e-9
0.876	2.799e-5	-7.708e-9
0.870	2.272e-5	-7.701e-9
0.864	1.846e-5	-7.691e-9
0.858	1.481e-5	-7.689e-9
0.852	1.176e-5	-7.683e-9
0.846	9.166e-6	-7.702e-9
0.840	6.881e-6	-7.690e-9
0.834	4.856e-6	-7.695e-9
0.828	3.035e-6	-7.692e-9
0.822	1.527e-6	-7.673e-9
0.816	-2.539e-8	-7.697e-9
0.810	-1.279e-6	-7.693e-9
0.804	-2.443e-6	-7.686e-9
0.798	-3.459e-6	-7.685e-9
0.792	-4.486e-6	-7.689e-9
0.786	-5.432e-6	-7.690e-9
0.780	-6.305e-6	-7.683e-9
0.774	-7.031e-6	-7.680e-9
0.768	-7.806e-6	-7.680e-9
0.762	-8.448e-6	-7.698e-9
0.756	-9.036e-6	-7.750e-9
0.750	-9.551e-6	-7.778e-9
0.744	-1.013e-5	-7.772e-9
0.738	-1.063e-5	-7.770e-9
0.732	-1.111e-5	-7.768e-9
0.726	-1.146e-5	-7.754e-9
0.720	-1.188e-5	-7.763e-9
0.714	-1.228e-5	-7.764e-9
0.708	-1.269e-5	-7.764e-9
0.702	-1.297e-5	-7.760e-9
0.696	-1.330e-5	-7.764e-9
0.690	-1.356e-5	-7.761e-9
0.684	-1.382e-5	-7.768e-9
0.678	-1.404e-5	-7.760e-9
0.672	-1.434e-5	-7.761e-9
0.666	-1.464e-5	-7.763e-9
0.660	-1.492e-5	-7.764e-9
0.654	-1.512e-5	-7.792e-9
0.648	-1.534e-5	-7.760e-9
0.642	-1.556e-5	-7.769e-9
0.636	-1.575e-5	-7.764e-9
0.630	-1.590e-5	-7.759e-9
0.624	-1.610e-5	-7.757e-9
0.618	-1.632e-5	-7.755e-9
0.612	-1.658e-5	-7.762e-9
0.606	-1.669e-5	-7.758e-9
0.600	-1.690e-5	-7.766e-9
0.594	-1.707e-5	-7.763e-9
0.588	-1.725e-5	-7.752e-9
0.582	-1.738e-5	-7.759e-9
0.576	-1.754e-5	-7.759e-9
0.570	-1.769e-5	-7.763e-9
0.564	-1.792e-5	-7.766e-9
0.558	-1.803e-5	-7.765e-9
0.552	-1.820e-5	-7.766e-9
0.546	-1.834e-5	-7.762e-9
0.540	-1.855e-5	-7.759e-9
0.534	-1.865e-5	-7.758e-9
0.528	-1.884e-5	-7.769e-9
0.522	-1.899e-5	-7.773e-9
0.516	-1.915e-5	-7.774e-9
0.510	-1.931e-5	-7.770e-9
0.504	-1.945e-5	-7.775e-9
0.498	-1.960e-5	-7.763e-9
0.492	-1.976e-5	-7.777e-9
0.486	-1.982e-5	-7.766e-9
0.480	-1.996e-5	-7.765e-9
0.474	-2.010e-5	-7.760e-9
0.468	-2.027e-5	-7.769e-9
0.462	-2.037e-5	-7.771e-9
0.456	-2.051e-5	-7.769e-9
0.450	-2.064e-5	-7.775e-9
0.444	-2.079e-5	-7.772e-9
0.438	-2.088e-5	-7.771e-9
0.432	-2.100e-5	-7.760e-9
0.426	-2.114e-5	-7.766e-9
0.420	-2.129e-5	-7.754e-9
0.414	-2.137e-5	-7.761e-9
0.408	-2.163e-5	-7.768e-9
0.402	-2.166e-5	-7.776e-9
0.396	-2.179e-5	-7.761e-9
0.390	-2.183e-5	-7.762e-9
0.384	-2.188e-5	-7.767e-9
0.378	-2.196e-5	-7.762e-9
0.372	-2.204e-5	-7.766e-9
0.366	-2.209e-5	-7.758e-9
0.360	-2.217e-5	-7.767e-9
0.354	-2.224e-5	-7.758e-9
0.348	-2.230e-5	-7.760e-9
0.342	-2.233e-5	-7.769e-9
0.336	-2.242e-5	-7.761e-9
0.330	-2.252e-5	-7.760e-9
0.324	-2.265e-5	-7.761e-9
0.318	-2.273e-5	-7.758e-9
0.312	-2.286e-5	-7.758e-9
0.306	-2.303e-5	-7.760e-9
0.300	-2.315e-5	-7.752e-9
0.294	-2.323e-5	-7.746e-9
0.288	-2.335e-5	-7.754e-9
0.282	-2.346e-5	-7.761e-9
0.276	-2.361e-5	-7.752e-9
0.270	-2.370e-5	-7.754e-9
0.264	-2.388e-5	-7.749e-9
0.258	-2.404e-5	-7.767e-9
0.252	-2.422e-5	-7.752e-9
0.246	-2.432e-5	-7.757e-9
0.240	-2.443e-5	-7.761e-9
0.234	-2.457e-5	-7.760e-9
0.228	-2.470e-5	-7.751e-9
0.222	-2.476e-5	-7.751e-9
0.216	-2.492e-5	-7.756e-9
0.210	-2.508e-5	-7.757e-9
0.204	-2.532e-5	-7.753e-9
0.198	-2.535e-5	-7.758e-9
0.192	-2.548e-5	-7.759e-9
0.186	-2.566e-5	-7.760e-9
0.180	-2.583e-5	-7.774e-9
0.174	-2.592e-5	-7.752e-9
0.168	-2.607e-5	-7.754e-9
0.162	-2.620e-5	-7.749e-9
0.156	-2.635e-5	-7.751e-9
0.150	-2.646e-5	-7.766e-9
0.144	-2.663e-5	-7.746e-9
0.138	-2.679e-5	-7.752e-9
0.132	-2.699e-5	-7.749e-9
0.126	-2.708e-5	-7.745e-9
0.120	-2.725e-5	-7.753e-9
0.114	-2.738e-5	-7.746e-9
0.108	-2.755e-5	-7.754e-9
0.102	-2.776e-5	-7.748e-9
0.096	-2.790e-5	-7.748e-9
0.090	-2.805e-5	-7.743e-9
0.084	-2.825e-5	-7.761e-9
0.078	-2.836e-5	-7.759e-9
0.072	-2.845e-5	-7.759e-9
0.066	-2.859e-5	-7.766e-9
0.060	-2.877e-5	-7.769e-9
0.054	-2.889e-5	-7.769e-9
0.048	-2.903e-5	-7.777e-9
0.042	-2.913e-5	-7.765e-9
0.036	-2.927e-5	-7.778e-9
0.030	-2.935e-5	-7.770e-9
0.024	-2.941e-5	-7.775e-9
0.018	-2.950e-5	-7.771e-9
0.012	-2.962e-5	-7.766e-9
0.006	-2.964e-5	-7.769e-9
0.000	-2.993e-5	-7.782e-9
-0.006	-2.983e-5	-7.772e-9
-0.012	-2.987e-5	-7.778e-9
-0.018	-2.983e-5	-7.776e-9
-0.024	-2.984e-5	-7.787e-9
-0.030	-2.983e-5	-7.780e-9
-0.036	-2.979e-5	-7.764e-9
-0.042	-2.970e-5	-7.773e-9
-0.048	-2.965e-5	-7.774e-9
-0.054	-2.961e-5	-7.774e-9
-0.060	-2.962e-5	-7.780e-9
-0.066	-2.993e-5	-7.773e-9
-0.072	-2.960e-5	-7.774e-9
-0.078	-2.941e-5	-7.774e-9
-0.084	-2.932e-5	-7.793e-9
-0.090	-2.918e-5	-7.770e-9
-0.096	-2.902e-5	-7.774e-9
-0.102	-2.896e-5	-7.776e-9
-0.108	-2.887e-5	-7.769e-9
-0.114	-2.871e-5	-7.788e-9
-0.120	-2.860e-5	-7.769e-9
-0.126	-2.851e-5	-7.772e-9
-0.132	-2.846e-5	-7.774e-9
-0.138	-2.834e-5	-7.773e-9
-0.144	-2.830e-5	-7.771e-9
-0.150	-2.825e-5	-7.773e-9
-0.156	-2.825e-5	-7.767e-9
-0.162	-2.819e-5	-7.764e-9
-0.168	-2.822e-5	-7.769e-9
-0.174	-2.835e-5	-7.768e-9
-0.180	-2.851e-5	-7.765e-9
-0.186	-2.865e-5	-7.777e-9
-0.192	-2.884e-5	-7.777e-9
-0.198	-2.906e-5	-7.774e-9
-0.204	-2.933e-5	-7.787e-9
-0.210	-2.960e-5	-7.776e-9
-0.216	-2.992e-5	-7.776e-9
-0.222	-3.032e-5	-7.782e-9
-0.228	-3.084e-5	-7.778e-9
-0.234	-3.129e-5	-7.771e-9
-0.240	-3.184e-5	-7.777e-9
-0.246	-3.242e-5	-7.774e-9
-0.252	-3.300e-5	-7.764e-9
-0.258	-3.364e-5	-7.779e-9
-0.264	-3.437e-5	-7.769e-9
-0.270	-3.513e-5	-7.768e-9
-0.276	-3.594e-5	-7.769e-9
-0.282	-3.673e-5	-7.759e-9
-0.288	-3.762e-5	-7.756e-9
-0.294	-3.856e-5	-7.763e-9
-0.300	-3.957e-5	-7.767e-9
-0.306	-4.055e-5	-7.752e-9
-0.312	-4.166e-5	-7.762e-9
-0.318	-4.277e-5	-7.746e-9
-0.324	-4.402e-5	-7.744e-9
-0.330	-4.530e-5	-7.750e-9
-0.336	-4.659e-5	-7.737e-9
-0.342	-4.799e-5	-7.749e-9
-0.348	-4.940e-5	-7.779e-9
-0.354	-5.086e-5	-7.769e-9
-0.360	-5.239e-5	-7.772e-9
-0.366	-5.397e-5	-7.766e-9
-0.372	-5.558e-5	-7.765e-9
-0.378	-5.727e-5	-7.765e-9
-0.384	-5.896e-5	-7.770e-9
-0.390	-6.070e-5	-7.765e-9
-0.396	-6.243e-5	-7.758e-9
-0.402	-6.416e-5	-7.768e-9
-0.408	-6.586e-5	-7.741e-9
-0.414	-6.769e-5	-7.765e-9
-0.420	-6.949e-5	-7.775e-9
-0.426	-7.125e-5	-7.762e-9
-0.432	-7.308e-5	-7.762e-9
-0.438	-7.486e-5	-7.760e-9
-0.444	-7.665e-5	-7.763e-9
-0.450	-7.838e-5	-7.745e-9
-0.456	-8.006e-5	-7.745e-9
-0.462	-8.173e-5	-7.747e-9
-0.468	-8.337e-5	-7.752e-9
-0.474	-8.494e-5	-7.735e-9
-0.480	-8.645e-5	-7.742e-9
-0.486	-8.787e-5	-7.769e-9
-0.492	-8.925e-5	-7.782e-9
-0.498	-9.055e-5	-7.779e-9
-0.504	-9.176e-5	-7.772e-9
-0.510	-9.294e-5	-7.784e-9
-0.516	-9.404e-5	-7.770e-9
-0.522	-9.501e-5	-7.780e-9
-0.528	-9.592e-5	-7.773e-9
-0.534	-9.674e-5	-7.770e-9
-0.540	-9.753e-5	-7.772e-9
-0.546	-9.819e-5	-7.778e-9
-0.552	-9.880e-5	-7.776e-9
-0.558	-9.933e-5	-7.773e-9
-0.564	-9.982e-5	-7.769e-9
-0.570	-1.002e-4	-7.772e-9
-0.576	-1.005e-4	-7.773e-9
-0.582	-1.008e-4	-7.768e-9
-0.588	-1.011e-4	-7.773e-9
-0.594	-1.013e-4	-7.766e-9
-0.600	-9.841e-5	-7.753e-9
-0.594	-8.279e-5	-7.725e-9
-0.588	-7.412e-5	-7.748e-9
-0.582	-6.733e-5	-7.732e-9
-0.576	-6.173e-5	-7.751e-9
-0.570	-5.681e-5	-7.745e-9
-0.564	-5.245e-5	-7.750e-9
-0.558	-4.857e-5	-7.754e-9
-0.552	-4.503e-5	-7.728e-9
-0.546	-4.168e-5	-7.743e-9
-0.540	-3.862e-5	-7.717e-9
-0.534	-3.576e-5	-7.750e-9
-0.528	-3.317e-5	-7.754e-9
-0.522	-3.064e-5	-7.753e-9
-0.516	-2.828e-5	-7.752e-9
-0.510	-2.603e-5	-7.750e-9
-0.504	-2.395e-5	-7.745e-9
-0.498	-2.195e-5	-7.744e-9
-0.492	-1.994e-5	-7.769e-9
-0.486	-1.803e-5	-7.765e-9
-0.480	-1.624e-5	-7.774e-9
-0.474	-1.447e-5	-7.771e-9
-0.468	-1.287e-5	-7.765e-9
-0.462	-1.134e-5	-7.779e-9
-0.456	-9.831e-6	-7.773e-9
-0.450	-8.329e-6	-7.690e-9
-0.444	-6.888e-6	-7.681e-9
-0.438	-5.489e-6	-7.687e-9
-0.432	-4.149e-6	-7.676e-9
-0.426	-2.842e-6	-7.681e-9
-0.420	-1.557e-6	-7.685e-9
-0.414	-3.629e-7	-7.693e-9
-0.408	8.347e-7	-7.684e-9
-0.402	1.943e-6	-7.682e-9
-0.396	3.070e-6	-7.684e-9
-0.390	4.078e-6	-7.700e-9
-0.384	5.089e-6	-7.690e-9
-0.378	6.083e-6	-7.689e-9
-0.372	7.059e-6	-7.697e-9
-0.366	7.944e-6	-7.711e-9
-0.360	8.767e-6	-7.710e-9
-0.354	9.647e-6	-7.724e-9
-0.348	1.053e-5	-7.721e-9
-0.342	1.131e-5	-7.694e-9
-0.336	1.203e-5	-7.698e-9
-0.330	1.277e-5	-7.700e-9
-0.324	1.350e-5	-7.702e-9
-0.318	1.412e-5	-7.706e-9
-0.312	1.475e-5	-7.707e-9
-0.306	1.539e-5	-7.704e-9
-0.300	1.602e-5	-7.699e-9
-0.294	1.665e-5	-7.704e-9
-0.288	1.721e-5	-7.689e-9
-0.282	1.778e-5	-7.706e-9
-0.276	1.831e-5	-7.689e-9
-0.270	1.884e-5	-7.705e-9
-0.264	1.933e-5	-7.702e-9
-0.258	1.973e-5	-7.704e-9
-0.252	2.018e-5	-7.703e-9
-0.246	2.062e-5	-7.707e-9
-0.240	2.100e-5	-7.700e-9
-0.234	2.141e-5	-7.697e-9
-0.228	2.179e-5	-7.708e-9
-0.222	2.217e-5	-7.706e-9
-0.216	2.256e-5	-7.707e-9
-0.210	2.293e-5	-7.713e-9
-0.204	2.337e-5	-7.709e-9
-0.198	2.371e-5	-7.708e-9
-0.192	2.402e-5	-7.713e-9
-0.186	2.432e-5	-7.709e-9
-0.180	2.472e-5	-7.713e-9
-0.174	2.509e-5	-7.713e-9
-0.168	2.541e-5	-7.694e-9
-0.162	2.570e-5	-7.704e-9
-0.156	2.611e-5	-7.706e-9
-0.150	2.650e-5	-7.704e-9
-0.144	2.679e-5	-7.707e-9
-0.138	2.711e-5	-7.714e-9
-0.132	2.751e-5	-7.707e-9
-0.126	2.783e-5	-7.714e-9
-0.120	2.817e-5	-7.721e-9
-0.114	2.847e-5	-7.715e-9
-0.108	2.880e-5	-7.723e-9
-0.102	2.918e-5	-7.715e-9
-0.096	2.952e-5	-7.720e-9
-0.090	2.995e-5	-7.731e-9
-0.084	3.035e-5	-7.703e-9
-0.078	3.074e-5	-7.697e-9
-0.072	3.117e-5	-7.685e-9
-0.066	3.164e-5	-7.687e-9
-0.060	3.207e-5	-7.693e-9
-0.054	3.255e-5	-7.694e-9
-0.048	3.303e-5	-7.693e-9
-0.042	3.348e-5	-7.687e-9
-0.036	3.400e-5	-7.685e-9
-0.030	3.455e-5	-7.695e-9
-0.024	3.503e-5	-7.697e-9
-0.018	3.549e-5	-7.702e-9
-0.012	3.598e-5	-7.704e-9
-0.006	3.646e-5	-7.703e-9
-0.000	3.712e-5	-7.691e-9
0.006	3.757e-5	-7.698e-9
0.012	3.813e-5	-7.695e-9
0.018	3.870e-5	-7.699e-9
0.024	3.925e-5	-7.697e-9
0.030	3.975e-5	-7.711e-9
0.036	4.031e-5	-7.703e-9
0.042	4.086e-5	-7.701e-9
0.048	4.135e-5	-7.701e-9
0.054	4.196e-5	-7.705e-9
0.060	4.258e-5	-7.705e-9
0.066	4.311e-5	-7.695e-9
0.072	4.366e-5	-7.707e-9
0.078	4.424e-5	-7.717e-9
0.084	4.491e-5	-7.709e-9
0.090	4.560e-5	-7.716e-9
0.096	4.627e-5	-7.711e-9
0.102	4.694e-5	-7.713e-9
0.108	4.752e-5	-7.712e-9
0.114	4.803e-5	-7.710e-9
0.120	4.841e-5	-7.719e-9
0.126	4.872e-5	-7.714e-9
0.132	4.872e-5	-7.703e-9
0.138	4.845e-5	-7.715e-9
0.144	4.800e-5	-7.718e-9
0.150	4.758e-5	-7.711e-9
0.156	4.715e-5	-7.714e-9
0.162	4.678e-5	-7.715e-9
0.168	4.653e-5	-7.706e-9
0.174	4.647e-5	-7.708e-9
0.180	4.655e-5	-7.711e-9
0.186	4.677e-5	-7.703e-9
0.192	4.697e-5	-7.706e-9
0.198	4.735e-5	-7.722e-9
0.204	4.781e-5	-7.717e-9
0.210	4.835e-5	-7.705e-9
0.216	4.891e-5	-7.703e-9
0.222	4.952e-5	-7.721e-9
0.228	5.014e-5	-7.707e-9
0.234	5.066e-5	-7.701e-9
0.240	5.120e-5	-7.704e-9
0.246	5.169e-5	-7.698e-9
0.252	5.208e-5	-7.700e-9
0.258	5.223e-5	-7.697e-9
0.264	5.215e-5	-7.697e-9
0.270	5.200e-5	-7.709e-9
0.276	5.161e-5	-7.692e-9
0.282	5.116e-5	-7.703e-9
0.288	5.064e-5	-7.699e-9
0.294	5.013e-5	-7.713e-9
0.300	4.966e-5	-7.718e-9
0.306	4.933e-5	-7.719e-9
0.312	4.895e-5	-7.717e-9
0.318	4.850e-5	-7.704e-9
0.324	4.809e-5	-7.718e-9
0.330	4.769e-5	-7.708e-9
0.336	4.732e-5	-7.713e-9
0.342	4.701e-5	-7.704e-9
0.348	4.665e-5	-7.703e-9
0.354	4.623e-5	-7.702e-9
0.360	4.582e-5	-7.698e-9
0.366	4.537e-5	-7.694e-9
0.372	4.499e-5	-7.708e-9
0.378	4.458e-5	-7.708e-9
0.384	4.412e-5	-7.699e-9
0.390	4.380e-5	-7.704e-9
0.396	4.351e-5	-7.704e-9
0.402	4.310e-5	-7.697e-9
0.408	4.268e-5	-7.698e-9
0.414	4.252e-5	-7.694e-9
0.420	4.230e-5	-7.693e-9
0.426	4.198e-5	-7.700e-9
0.432	4.166e-5	-7.698e-9
0.438	4.143e-5	-7.696e-9
0.444	4.127e-5	-7.701e-9
0.450	4.109e-5	-7.701e-9
0.456	4.089e-5	-7.711e-9
0.462	4.082e-5	-7.709e-9
0.468	4.077e-5	-7.700e-9
0.474	4.066e-5	-7.700e-9
0.480	4.057e-5	-7.701e-9
0.486	4.057e-5	-7.704e-9
0.492	4.055e-5	-7.695e-9
0.498	4.053e-5	-7.704e-9
0.504	4.055e-5	-7.709e-9
0.510	4.069e-5	-7.704e-9
0.516	4.083e-5	-7.701e-9
0.522	4.088e-5	-7.684e-9
0.528	4.096e-5	-7.697e-9
0.534	4.119e-5	-7.691e-9
0.540	4.143e-5	-7.692e-9
0.546	4.164e-5	-7.692e-9
0.552	4.187e-5	-7.702e-9
0.558	4.215e-5	-7.700e-9
0.564	4.250e-5	-7.716e-9
0.570	4.278e-5	-7.703e-9
0.576	4.314e-5	-7.712e-9
0.582	4.359e-5	-7.715e-9
0.588	4.406e-5	-7.721e-9
0.594	4.452e-5	-7.711e-9
0.600	4.505e-5	-7.713e-9
0.606	4.565e-5	-7.713e-9
0.612	4.628e-5	-7.713e-9
0.618	4.691e-5	-7.713e-9
0.624	4.752e-5	-7.724e-9
0.630	4.831e-5	-7.715e-9
0.636	4.913e-5	-7.713e-9
0.642	4.987e-5	-7.713e-9
0.648	5.060e-5	-7.702e-9
0.654	5.143e-5	-7.690e-9
0.660	5.228e-5	-7.700e-9
0.666	5.307e-5	-7.703e-9
0.672	5.377e-5	-7.701e-9
0.678	5.460e-5	-7.702e-9
0.684	5.540e-5	-7.700e-9
0.690	5.613e-5	-7.710e-9
0.696	5.687e-5	-7.710e-9
0.702	5.770e-5	-7.702e-9
0.708	5.849e-5	-7.707e-9
0.714	5.924e-5	-7.718e-9
0.720	5.996e-5	-7.720e-9
0.726	6.075e-5	-7.706e-9
0.732	6.156e-5	-7.710e-9
0.738	6.238e-5	-7.722e-9
0.744	6.320e-5	-7.713e-9
0.750	6.411e-5	-7.727e-9
0.756	6.505e-5	-7.718e-9
0.762	6.591e-5	-7.727e-9
0.768	6.682e-5	-7.732e-9
0.774	6.776e-5	-7.719e-9
0.780	6.878e-5	-7.724e-9
0.786	6.970e-5	-7.713e-9
0.792	7.072e-5	-7.678e-9
0.798	7.188e-5	-7.684e-9
0.804	7.309e-5	-7.689e-9
0.810	7.425e-5	-7.698e-9
0.816	7.546e-5	-7.697e-9
0.822	7.694e-5	-7.685e-9
0.828	7.824e-5	-7.695e-9
0.834	7.955e-5	-7.692e-9
0.840	8.103e-5	-7.691e-9
0.846	8.259e-5	-7.692e-9
0.852	8.437e-5	-7.697e-9
0.858	8.617e-5	-7.702e-9
0.864	8.811e-5	-7.709e-9
0.870	9.029e-5	-7.699e-9
0.876	9.258e-5	-7.695e-9
0.882	9.488e-5	-7.705e-9
0.888	9.748e-5	-7.695e-9
0.894	1.002e-4	-7.706e-9
0.900	9.676e-5	-7.716e-9
0.894	5.442e-5	-7.702e-9
0.888	4.262e-5	-7.720e-9
0.882	3.454e-5	-7.707e-9
0.876	2.824e-5	-7.719e-9
0.870	2.328e-5	-7.719e-9
0.864	1.917e-5	-7.715e-9
0.858	1.567e-5	-7.713e-9
0.852	1.274e-5	-7.716e-9
0.846	1.016e-5	-7.724e-9
0.840	7.912e-6	-7.716e-9
0.834	5.879e-6	-7.710e-9
0.828	4.066e-6	-7.711e-9
0.822	2.464e-6	-7.700e-9
0.816	9.312e-7	-7.716e-9
0.810	-3.748e-7	-7.714e-9
0.804	-1.555e-6	-7.707e-9
0.798	-2.592e-6	-7.702e-9
0.792	-3.668e-6	-7.704e-9
0.786	-4.604e-6	-7.713e-9
0.780	-5.510e-6	-7.693e-9
0.774	-6.288e-6	-7.699e-9
0.768	-7.093e-6	-7.691e-9
0.762	-7.772e-6	-7.699e-9
0.756	-8.410e-6	-7.711e-9
0.750	-8.951e-6	-7.758e-9
0.744	-9.512e-6	-7.792e-9
0.738	-9.972e-6	-7.798e-9
0.732	-1.046e-5	-7.789e-9
0.726	-1.087e-5	-7.789e-9
0.720	-1.129e-5	-7.783e-9
0.714	-1.172e-5	-7.789e-9
0.708	-1.212e-5	-7.801e-9
0.702	-1.245e-5	-7.785e-9
0.696	-1.279e-5	-7.781e-9
0.690	-1.310e-5	-7.781e-9
0.684	-1.345e-5	-7.780e-9
0.678	-1.369e-5	-7.795e-9
0.672	-1.395e-5	-7.791e-9
0.666	-1.420e-5	-7.787e-9
0.660	-1.443e-5	-7.790e-9
0.654	-1.459e-5	-7.793e-9
0.648	-1.481e-5	-7.788e-9
0.642	-1.504e-5	-7.787e-9
0.636	-1.525e-5	-7.789e-9
0.630	-1.541e-5	-7.791e-9
0.624	-1.563e-5	-7.790e-9
0.618	-1.587e-5	-7.781e-9
0.612	-1.614e-5	-7.790e-9
0.606	-1.624e-5	-7.783e-9
0.600	-1.640e-5	-7.810e-9
0.594	-1.664e-5	-7.776e-9
0.588	-1.682e-5	-7.780e-9
0.582	-1.695e-5	-7.775e-9
0.576	-1.714e-5	-7.773e-9
0.570	-1.732e-5	-7.784e-9
0.564	-1.756e-5	-7.776e-9
0.558	-1.765e-5	-7.779e-9
0.552	-1.784e-5	-7.780e-9
0.546	-1.800e-5	-7.780e-9
0.540	-1.816e-5	-7.774e-9
0.534	-1.826e-5	-7.774e-9
0.528	-1.845e-5	-7.784e-9
0.522	-1.863e-5	-7.775e-9
0.516	-1.881e-5	-7.795e-9
0.510	-1.898e-5	-7.782e-9
0.504	-1.912e-5	-7.782e-9
0.498	-1.929e-5	-7.782e-9
0.492	-1.952e-5	-7.784e-9
0.486	-1.959e-5	-7.777e-9
0.480	-1.977e-5	-7.778e-9
0.474	-1.994e-5	-7.774e-9
0.468	-2.010e-5	-7.775e-9
0.462	-2.022e-5	-7.781e-9
0.456	-2.035e-5	-7.776e-9
0.450	-2.052e-5	-7.780e-9
0.444	-2.069e-5	-7.785e-9
0.438	-2.081e-5	-7.784e-9
0.432	-2.095e-5	-7.779e-9
0.426	-2.113e-5	-7.789e-9
0.420	-2.132e-5	-7.780e-9
0.414	-2.140e-5	-7.774e-9
0.408	-2.170e-5	-7.781e-9
0.402	-2.178e-5	-7.766e-9
0.396	-2.192e-5	-7.764e-9
0.390	-2.199e-5	-7.775e-9
0.384	-2.209e-5	-7.773e-9
0.378	-2.219e-5	-7.767e-9
0.372	-2.230e-5	-7.774e-9
0.366	-2.231e-5	-7.771e-9
0.360	-2.237e-5	-7.772e-9
0.354	-2.240e-5	-7.776e-9
0.348	-2.249e-5	-7.769e-9
0.342	-2.249e-5	-7.766e-9
0.336	-2.256e-5	-7.773e-9
0.330	-2.261e-5	-7.776e-9
0.324	-2.270e-5	-7.777e-9
0.318	-2.273e-5	-7.768e-9
0.312	-2.283e-5	-7.778e-9
0.306	-2.298e-5	-7.778e-9
0.300	-2.309e-5	-7.777e-9
0.294	-2.316e-5	-7.775e-9
0.288	-2.333e-5	-7.769e-9
0.282	-2.344e-5	-7.781e-9
0.276	-2.361e-5	-7.768e-9
0.270	-2.368e-5	-7.774e-9
0.264	-2.383e-5	-7.773e-9
0.258	-2.400e-5	-7.778e-9
0.252	-2.416e-5	-7.774e-9
0.246	-2.426e-5	-7.772e-9
0.240	-2.442e-5	-7.770e-9
0.234	-2.456e-5	-7.773e-9
0.228	-2.470e-5	-7.763e-9
0.222	-2.480e-5	-7.780e-9
0.216	-2.493e-5	-7.769e-9
0.210	-2.505e-5	-7.778e-9
0.204	-2.530e-5	-7.766e-9
0.198	-2.533e-5	-7.762e-9
0.192	-2.547e-5	-7.767e-9
0.186	-2.561e-5	-7.778e-9
0.180	-2.578e-5	-7.778e-9
0.174	-2.583e-5	-7.768e-9
0.168	-2.597e-5	-7.766e-9
0.162	-2.612e-5	-7.761e-9
0.156	-2.629e-5	-7.775e-9
0.150	-2.640e-5	-7.758e-9
0.144	-2.656e-5	-7.760e-9
0.138	-2.671e-5	-7.763e-9
0.132	-2.691e-5	-7.771e-9
0.126	-2.699e-5	-7.759e-9
0.120	-2.716e-5	-7.756e-9
0.114	-2.731e-5	-7.765e-9
0.108	-2.748e-5	-7.763e-9
0.102	-2.766e-5	-7.759e-9
0.096	-2.777e-5	-7.765e-9
0.090	-2.791e-5	-7.757e-9
0.084	-2.811e-5	-7.769e-9
0.078	-2.824e-5	-7.768e-9
0.072	-2.837e-5	-7.780e-9
0.066	-2.853e-5	-7.773e-9
0.060	-2.868e-5	-7.782e-9
0.054	-2.878e-5	-7.764e-9
0.048	-2.893e-5	-7.779e-9
0.042	-2.907e-5	-7.783e-9
0.036	-2.923e-5	-7.782e-9
0.030	-2.930e-5	-7.782e-9
0.024	-2.938e-5	-7.775e-9
0.018	-2.946e-5	-7.782e-9
0.012	-2.957e-5	-7.788e-9
0.006	-2.960e-5	-7.778e-9
0.000	-2.988e-5	-7.780e-9
-0.006	-2.981e-5	-7.790e-9
-0.012	-2.984e-5	-7.792e-9
-0.018	-2.982e-5	-7.787e-9
-0.024	-2.983e-5	-7.785e-9
-0.030	-2.984e-5	-7.783e-9
-0.036	-2.984e-5	-7.795e-9
-0.042	-2.977e-5	-7.778e-9
-0.048	-2.973e-5	-7.783e-9
-0.054	-2.967e-5	-7.778e-9
-0.060	-2.961e-5	-7.779e-9
-0.066	-2.951e-5	-7.790e-9
-0.072	-2.942e-5	-7.795e-9
-0.078	-2.931e-5	-7.789e-9
-0.084	-2.924e-5	-7.779e-9
-0.090	-2.907e-5	-7.782e-9
-0.096	-2.896e-5	-7.780e-9
-0.102	-2.885e-5	-7.788e-9
-0.108	-2.875e-5	-7.781e-9
-0.114	-2.858e-5	-7.775e-9
-0.120	-2.846e-5	-7.783e-9
-0.126	-2.834e-5	-7.764e-9
-0.132	-2.825e-5	-7.777e-9
-0.138	-2.812e-5	-7.778e-9
-0.144	-2.802e-5	-7.765e-9
-0.150	-2.794e-5	-7.764e-9
-0.156	-2.791e-5	-7.763e-9
-0.162	-2.785e-5	-7.762e-9
-0.168	-2.786e-5	-7.761e-9
-0.174	-2.786e-5	-7.765e-9
-0.180	-2.793e-5	-7.754e-9
-0.186	-2.798e-5	-7.762e-9
-0.192	-2.807e-5	-7.777e-9
-0.198	-2.822e-5	-7.768e-9
-0.204	-2.843e-5	-7.781e-9
-0.210	-2.865e-5	-7.779e-9
-0.216	-2.889e-5	-7.778e-9
-0.222	-2.920e-5	-7.784e-9
-0.228	-2.958e-5	-7.776e-9
-0.234	-2.993e-5	-7.769e-9
-0.240	-3.037e-5	-7.779e-9
-0.246	-3.087e-5	-7.774e-9
-0.252	-3.146e-5	-7.778e-9
-0.258	-3.203e-5	-7.776e-9
-0.264	-3.265e-5	-7.783e-9
-0.270	-3.329e-5	-7.775e-9
-0.276	-3.401e-5	-7.784e-9
-0.282	-3.472e-5	-7.787e-9
-0.288	-3.550e-5	-7.766e-9
-0.294	-3.634e-5	-7.769e-9
-0.300	-3.723e-5	-7.771e-9
-0.306	-3.818e-5	-7.767e-9
-0.312	-3.919e-5	-7.776e-9
-0.318	-4.027e-5	-7.769e-9
-0.324	-4.139e-5	-7.767e-9
-0.330	-4.254e-5	-7.767e-9
-0.336	-4.375e-5	-7.767e-9
-0.342	-4.508e-5	-7.753e-9
-0.348	-4.646e-5	-7.756e-9
-0.354	-4.780e-5	-7.772e-9
-0.360	-4.925e-5	-7.787e-9
-0.366	-5.079e-5	-7.784e-9
-0.372	-5.239e-5	-7.781e-9
-0.378	-5.394e-5	-7.778e-9
-0.384	-5.555e-5	-7.780e-9
-0.390	-5.723e-5	-7.757e-9
-0.396	-5.892e-5	-7.769e-9
-0.402	-6.062e-5	-7.770e-9
-0.408	-6.237e-5	-7.777e-9
-0.414	-6.419e-5	-7.757e-9
-0.420	-6.593e-5	-7.751e-9
-0.426	-6.772e-5	-7.763e-9
-0.432	-6.948e-5	-7.770e-9
-0.438	-7.127e-5	-7.764e-9
-0.444	-7.308e-5	-7.759e-9
-0.450	-7.474e-5	-7.763e-9
-0.456	-7.646e-5	-7.753e-9
-0.462	-7.813e-5	-7.763e-9
-0.468	-7.979e-5	-7.758e-9
-0.474	-8.134e-5	-7.744e-9
-0.480	-8.282e-5	-7.748e-9
-0.486	-8.431e-5	-7.746e-9
-0.492	-8.577e-5	-7.738e-9
-0.498	-8.708e-5	-7.747e-9
-0.504	-8.831e-5	-7.790e-9
-0.510	-8.954e-5	-7.780e-9
-0.516	-9.067e-5	-7.794e-9
-0.522	-9.166e-5	-7.794e-9
-0.528	-9.261e-5	-7.786e-9
-0.534	-9.347e-5	-7.786e-9
-0.540	-9.430e-5	-7.776e-9
-0.546	-9.498e-5	-7.768e-9
-0.552	-9.561e-5	-7.780e-9
-0.558	-9.622e-5	-7.777e-9
-0.564	-9.677e-5	-7.763e-9
-0.570	-9.720e-5	-7.774e-9
-0.576	-9.756e-5	-7.781e-9
-0.582	-9.790e-5	-7.777e-9
-0.588	-9.823e-5	-7.782e-9
-0.594	-9.845e-5	-7.770e-9
-0.600	-9.561e-5	-7.756e-9
-0.594	-8.000e-5	-7.733e-9
-0.588	-7.143e-5	-7.746e-9
-0.582	-6.480e-5	-7.746e-9
-0.576	-5.927e-5	-7.761e-9
-0.570	-5.443e-5	-7.757e-9
-0.564	-5.017e-5	-7.760e-9
-0.558	-4.636e-5	-7.736e-9
-0.552	-4.285e-5	-7.745e-9
-0.546	-3.963e-5	-7.749e-9
-0.540	-3.660e-5	-7.750e-9
-0.534	-3.386e-5	-7.756e-9
-0.528	-3.129e-5	-7.762e-9
-0.522	-2.882e-5	-7.764e-9
-0.516	-2.646e-5	-7.751e-9
-0.510	-2.429e-5	-7.751e-9
-0.504	-2.226e-5	-7.759e-9
-0.498	-2.024e-5	-7.765e-9
-0.492	-1.829e-5	-7.762e-9
-0.486	-1.646e-5	-7.785e-9
-0.480	-1.471e-5	-7.774e-9
-0.474	-1.301e-5	-7.765e-9
-0.468	-1.135e-5	-7.770e-9
-0.462	-9.774e-6	-7.781e-9
-0.456	-8.253e-6	-7.687e-9
-0.450	-6.783e-6	-7.689e-9
-0.444	-5.332e-6	-7.698e-9
-0.438	-3.975e-6	-7.692e-9
-0.432	-2.712e-6	-7.673e-9
-0.426	-1.465e-6	-7.695e-9
-0.420	-2.557e-7	-7.714e-9
-0.414	9.312e-7	-7.695e-9
-0.408	2.053e-6	-7.712e-9
-0.402	3.153e-6	-7.699e-9
-0.396	4.246e-6	-7.705e-9
-0.390	5.257e-6	-7.699e-9
-0.384	6.198e-6	-7.696e-9
-0.378	7.112e-6	-7.706e-9
-0.372	8.006e-6	-7.712e-9
-0.366	8.836e-6	-7.708e-9
-0.360	9.652e-6	-7.717e-9
-0.354	1.050e-5	-7.713e-9
-0.348	1.130e-5	-7.690e-9
-0.342	1.207e-5	-7.705e-9
-0.336	1.280e-5	-7.702e-9
-0.330	1.352e-5	-7.700e-9
-0.324	1.417e-5	-7.706e-9
-0.318	1.480e-5	-7.710e-9
-0.312	1.536e-5	-7.718e-9
-0.306	1.594e-5	-7.704e-9
-0.300	1.658e-5	-7.695e-9
-0.294	1.713e-5	-7.702e-9
-0.288	1.768e-5	-7.674e-9
-0.282	1.824e-5	-7.690e-9
-0.276	1.879e-5	-7.709e-9
-0.270	1.933e-5	-7.714e-9
-0.264	1.976e-5	-7.727e-9
-0.258	2.020e-5	-7.710e-9
-0.252	2.066e-5	-7.708e-9
-0.246	2.103e-5	-7.708e-9
-0.240	2.140e-5	-7.705e-9
-0.234	2.182e-5	-7.709e-9
-0.228	2.224e-5	-7.709e-9
-0.222	2.263e-5	-7.713e-9
-0.216	2.303e-5	-7.708e-9
-0.210	2.334e-5	-7.710e-9
-0.204	2.376e-5	-7.712e-9
-0.198	2.407e-5	-7.713e-9
-0.192	2.438e-5	-7.713e-9
-0.186	2.474e-5	-7.707e-9
-0.180	2.512e-5	-7.708e-9
-0.174	2.545e-5	-7.711e-9
-0.168	2.580e-5	-7.712e-9
-0.162	2.613e-5	-7.711e-9
-0.156	2.646e-5	-7.699e-9
-0.150	2.680e-5	-7.710e-9
-0.144	2.712e-5	-7.711e-9
-0.138	2.741e-5	-7.712e-9
-0.132	2.776e-5	-7.716e-9
-0.126	2.809e-5	-7.724e-9
-0.120	2.837e-5	-7.712e-9
-0.114	2.876e-5	-7.722e-9
-0.108	2.919e-5	-7.715e-9
-0.102	2.963e-5	-7.724e-9
-0.096	3.000e-5	-7.719e-9
-0.090	3.040e-5	-7.690e-9
-0.084	3.082e-5	-7.701e-9
-0.078	3.119e-5	-7.686e-9
-0.072	3.156e-5	-7.694e-9
-0.066	3.195e-5	-7.697e-9
-0.060	3.243e-5	-7.697e-9
-0.054	3.285e-5	-7.692e-9
-0.048	3.325e-5	-7.698e-9
-0.042	3.367e-5	-7.700e-9
-0.036	3.412e-5	-7.695e-9
-0.030	3.458e-5	-7.702e-9
-0.024	3.498e-5	-7.699e-9
-0.018	3.542e-5	-7.704e-9
-0.012	3.592e-5	-7.694e-9
-0.006	3.639e-5	-7.691e-9
-0.000	3.704e-5	-7.697e-9
0.006	3.747e-5	-7.701e-9
0.012	3.799e-5	-7.702e-9
0.018	3.847e-5	-7.700e-9
0.024	3.897e-5	-7.701e-9
0.030	3.952e-5	-7.701e-9
0.036	4.006e-5	-7.705e-9
0.042	4.059e-5	-7.700e-9
0.048	4.111e-5	-7.700e-9
0.054	4.169e-5	-7.695e-9
0.060	4.225e-5	-7.701e-9
0.066	4.277e-5	-7.703e-9
0.072	4.327e-5	-7.712e-9
0.078	4.383e-5	-7.720e-9
0.084	4.444e-5	-7.707e-9
0.090	4.499e-5	-7.719e-9
0.096	4.552e-5	-7.715e-9
0.102	4.616e-5	-7.708e-9
0.108	4.667e-5	-7.705e-9
0.114	4.713e-5	-7.708e-9
0.120	4.746e-5	-7.704e-9
0.126	4.765e-5	-7.713e-9
0.132	4.762e-5	-7.700e-9
0.138	4.737e-5	-7.711e-9
0.144	4.698e-5	-7.716e-9
0.150	4.658e-5	-7.701e-9
0.156	4.622e-5	-7.707e-9
0.162	4.583e-5	-7.709e-9
0.168	4.552e-5	-7.704e-9
0.174	4.535e-5	-7.708e-9
0.180	4.540e-5	-7.705e-9
0.186	4.557e-5	-7.714e-9
0.192	4.572e-5	-7.703e-9
0.198	4.605e-5	-7.701e-9
0.204	4.644e-5	-7.704e-9
0.210	4.696e-5	-7.703e-9
0.216	4.743e-5	-7.702e-9
0.222	4.804e-5	-7.705e-9
0.228	4.869e-5	-7.713e-9
0.234	4.926e-5	-7.719e-9
0.240	4.980e-5	-7.718e-9
0.246	5.037e-5	-7.707e-9
0.252	5.086e-5	-7.700e-9
0.258	5.123e-5	-7.695e-9
0.264	5.136e-5	-7.701e-9
0.270	5.141e-5	-7.712e-9
0.276	5.126e-5	-7.706e-9
0.282	5.085e-5	-7.699e-9
0.288	5.034e-5	-7.718e-9
0.294	4.987e-5	-7.721e-9
0.300	4.942e-5	-7.715e-9
0.306	4.888e-5	-7.721e-9
0.312	4.837e-5	-7.720e-9
0.318	4.798e-5	-7.707e-9
0.324	4.761e-5	-7.719e-9
0.330	4.725e-5	-7.707e-9
0.336	4.693e-5	-7.710e-9
0.342	4.667e-5	-7.699e-9
0.348	4.643e-5	-7.711e-9
0.354	4.613e-5	-7.716e-9
0.360	4.576e-5	-7.700e-9
0.366	4.537e-5	-7.712e-9
0.372	4.495e-5	-7.712e-9
0.378	4.449e-5	-7.703e-9
0.384	4.402e-5	-7.720e-9
0.390	4.363e-5	-7.709e-9
0.396	4.324e-5	-7.709e-9
0.402	4.279e-5	-7.694e-9
0.408	4.234e-5	-7.696e-9
0.414	4.208e-5	-7.699e-9
0.420	4.176e-5	-7.688e-9
0.426	4.142e-5	-7.701e-9
0.432	4.113e-5	-7.688e-9
0.438	4.090e-5	-7.705e-9
0.444	4.072e-5	-7.690e-9
0.450	4.049e-5	-7.699e-9
0.456	4.031e-5	-7.699e-9
0.462	4.031e-5	-7.702e-9
0.468	4.019e-5	-7.704e-9
0.474	4.007e-5	-7.696e-9
0.480	3.998e-5	-7.699e-9
0.486	3.997e-5	-7.704e-9
0.492	4.002e-5	-7.701e-9
0.498	4.000e-5	-7.704e-9
0.504	4.001e-5	-7.699e-9
0.510	4.011e-5	-7.703e-9
0.516	4.022e-5	-7.691e-9
0.522	4.029e-5	-7.696e-9
0.528	4.040e-5	-7.697e-9
0.534	4.062e-5	-7.695e-9
0.540	4.085e-5	-7.692e-9
0.546	4.097e-5	-7.682e-9
0.552	4.120e-5	-7.699e-9
0.558	4.149e-5	-7.695e-9
0.564	4.183e-5	-7.693e-9
0.570	4.209e-5	-7.693e-9
0.576	4.241e-5	-7.697e-9
0.582	4.285e-5	-7.702e-9
0.588	4.330e-5	-7.696e-9
0.594	4.369e-5	-7.703e-9
0.600	4.415e-5	-7.704e-9
0.606	4.472e-5	-7.705e-9
0.612	4.533e-5	-7.707e-9
0.618	4.595e-5	-7.692e-9
0.624	4.654e-5	-7.689e-9
0.630	4.723e-5	-7.704e-9
0.636	4.802e-5	-7.705e-9
0.642	4.877e-5	-7.731e-9
0.648	4.946e-5	-7.712e-9
0.654	5.022e-5	-7.707e-9
0.660	5.106e-5	-7.683e-9
0.666	5.184e-5	-7.697e-9
0.672	5.255e-5	-7.710e-9
0.678	5.332e-5	-7.699e-9
0.684	5.408e-5	-7.700e-9
0.690	5.478e-5	-7.709e-9
0.696	5.544e-5	-7.710e-9
0.702	5.619e-5	-7.709e-9
0.708	5.692e-5	-7.720e-9
0.714	5.758e-5	-7.717e-9
0.720	5.828e-5	-7.716e-9
0.726	5.901e-5	-7.713e-9
0.732	5.979e-5	-7.717e-9
0.738	6.051e-5	-7.711e-9
0.744	6.124e-5	-7.710e-9
0.750	6.208e-5	-7.706e-9
0.756	6.291e-5	-7.712e-9
0.762	6.372e-5	-7.722e-9
0.768	6.461e-5	-7.719e-9
0.774	6.548e-5	-7.719e-9
0.780	6.644e-5	-7.718e-9
0.786	6.737e-5	-7.719e-9
0.792	6.832e-5	-7.723e-9
0.798	6.933e-5	-7.731e-9
0.804	7.043e-5	-7.688e-9
0.810	7.147e-5	-7.680e-9
0.816	7.259e-5	-7.682e-9
0.822	7.402e-5	-7.690e-9
0.828	7.526e-5	-7.681e-9
0.834	7.656e-5	-7.665e-9
0.840	7.788e-5	-7.687e-9
0.846	7.939e-5	-7.688e-9
0.852	8.102e-5	-7.688e-9
0.858	8.261e-5	-7.695e-9
0.864	8.439e-5	-7.696e-9
0.870	8.639e-5	-7.707e-9
0.876	8.849e-5	-7.713e-9
0.882	9.073e-5	-7.695e-9
0.888	9.303e-5	-7.700e-9
0.894	9.558e-5	-7.695e-9
0.900	9.208e-5	-7.723e-9
0.894	5.084e-5	-7.723e-9
0.888	3.979e-5	-7.731e-9
0.882	3.232e-5	-7.699e-9
0.876	2.646e-5	-7.722e-9
0.870	2.175e-5	-7.722e-9
0.864	1.791e-5	-7.710e-9
0.858	1.462e-5	-7.718e-9
0.852	1.183e-5	-7.703e-9
0.846	9.373e-6	-7.724e-9
0.840	7.245e-6	-7.713e-9
0.834	5.303e-6	-7.718e-9
0.828	3.565e-6	-7.710e-9
0.822	2.073e-6	-7.713e-9
0.816	5.818e-7	-7.721e-9
0.810	-6.631e-7	-7.714e-9
0.804	-1.815e-6	-7.711e-9
0.798	-2.830e-6	-7.718e-9
0.792	-3.816e-6	-7.708e-9
0.786	-4.714e-6	-7.711e-9
0.780	-5.587e-6	-7.708e-9
0.774	-6.367e-6	-7.701e-9
0.768	-7.130e-6	-7.703e-9
0.762	-7.753e-6	-7.697e-9
0.756	-8.371e-6	-7.700e-9
0.750	-8.846e-6	-7.759e-9
0.744	-9.381e-6	-7.792e-9
0.738	-9.865e-6	-7.799e-9
0.732	-1.034e-5	-7.787e-9
0.726	-1.071e-5	-7.791e-9
0.720	-1.114e-5	-7.788e-9
0.714	-1.155e-5	-7.793e-9
0.708	-1.197e-5	-7.784e-9
0.702	-1.226e-5	-7.786e-9
0.696	-1.258e-5	-7.781e-9
0.690	-1.290e-5	-7.780e-9
0.684	-1.326e-5	-7.783e-9
0.678	-1.349e-5	-7.783e-9
0.672	-1.373e-5	-7.782e-9
0.666	-1.400e-5	-7.798e-9
0.660	-1.420e-5	-7.793e-9
0.654	-1.438e-5	-7.791e-9
0.648	-1.460e-5	-7.789e-9
0.642	-1.482e-5	-7.793e-9
0.636	-1.502e-5	-7.794e-9
0.630	-1.518e-5	-7.775e-9
0.624	-1.538e-5	-7.782e-9
0.618	-1.559e-5	-7.789e-9
0.612	-1.585e-5	-7.789e-9
0.606	-1.595e-5	-7.788e-9
0.600	-1.617e-5	-7.789e-9
0.594	-1.636e-5	-7.786e-9
0.588	-1.654e-5	-7.782e-9
0.582	-1.673e-5	-7.773e-9
0.576	-1.692e-5	-7.773e-9
0.570	-1.708e-5	-7.771e-9
0.564	-1.726e-5	-7.773e-9
0.558	-1.737e-5	-7.780e-9
0.552	-1.754e-5	-7.773e-9
0.546	-1.774e-5	-7.770e-9
0.540	-1.793e-5	-7.778e-9
0.534	-1.804e-5	-7.768e-9
0.528	-1.824e-5	-7.775e-9
0.522	-1.841e-5	-7.780e-9
0.516	-1.859e-5	-7.778e-9
0.510	-1.876e-5	-7.782e-9
0.504	-1.891e-5	-7.789e-9
0.498	-1.906e-5	-7.784e-9
0.492	-1.924e-5	-7.792e-9
0.486	-1.933e-5	-7.776e-9
0.480	-1.951e-5	-7.778e-9
0.474	-1.968e-5	-7.790e-9
0.468	-1.986e-5	-7.791e-9
0.462	-1.997e-5	-7.781e-9
0.456	-2.013e-5	-7.776e-9
0.450	-2.028e-5	-7.785e-9
0.444	-2.046e-5	-7.783e-9
0.438	-2.056e-5	-7.787e-9
0.432	-2.069e-5	-7.782e-9
0.426	-2.088e-5	-7.781e-9
0.420	-2.107e-5	-7.779e-9
0.414	-2.119e-5	-7.772e-9
0.408	-2.146e-5	-7.783e-9
0.402	-2.152e-5	-7.782e-9
0.396	-2.168e-5	-7.784e-9
0.390	-2.178e-5	-7.778e-9
0.384	-2.189e-5	-7.773e-9
0.378	-2.199e-5	-7.765e-9
0.372	-2.210e-5	-7.769e-9
0.366	-2.212e-5	-7.771e-9
0.360	-2.220e-5	-7.775e-9
0.354	-2.225e-5	-7.774e-9
0.348	-2.228e-5	-7.777e-9
0.342	-2.228e-5	-7.774e-9
0.336	-2.234e-5	-7.766e-9
0.330	-2.238e-5	-7.776e-9
0.324	-2.246e-5	-7.769e-9
0.318	-2.248e-5	-7.759e-9
0.312	-2.262e-5	-7.778e-9
0.306	-2.279e-5	-7.767e-9
0.300	-2.287e-5	-7.766e-9
0.294	-2.295e-5	-7.772e-9
0.288	-2.308e-5	-7.763e-9
0.282	-2.322e-5	-7.770e-9
0.276	-2.336e-5	-7.765e-9
0.270	-2.345e-5	-7.770e-9
0.264	-2.358e-5	-7.760e-9
0.258	-2.373e-5	-7.780e-9
0.252	-2.388e-5	-7.769e-9
0.246	-2.400e-5	-7.776e-9
0.240	-2.414e-5	-7.771e-9
0.234	-2.429e-5	-7.780e-9
0.228	-2.442e-5	-7.783e-9
0.222	-2.450e-5	-7.782e-9
0.216	-2.463e-5	-7.784e-9
0.210	-2.477e-5	-7.779e-9
0.204	-2.505e-5	-7.799e-9
0.198	-2.507e-5	-7.787e-9
0.192	-2.521e-5	-7.766e-9
0.186	-2.534e-5	-7.766e-9
0.180	-2.549e-5	-7.785e-9
0.174	-2.558e-5	-7.782e-9
0.168	-2.573e-5	-7.786e-9
0.162	-2.587e-5	-7.766e-9
0.156	-2.602e-5	-7.786e-9
0.150	-2.613e-5	-7.780e-9
0.144	-2.628e-5	-7.769e-9
0.138	-2.644e-5	-7.766e-9
0.132	-2.661e-5	-7.763e-9
0.126	-2.670e-5	-7.767e-9
0.120	-2.686e-5	-7.767e-9
0.114	-2.701e-5	-7.763e-9
0.108	-2.717e-5	-7.757e-9
0.102	-2.736e-5	-7.765e-9
0.096	-2.747e-5	-7.744e-9
0.090	-2.763e-5	-7.750e-9
0.084	-2.781e-5	-7.760e-9
0.078	-2.792e-5	-7.758e-9
0.072	-2.804e-5	-7.767e-9
0.066	-2.819e-5	-7.764e-9
0.060	-2.834e-5	-7.767e-9
0.054	-2.846e-5	-7.775e-9
0.048	-2.860e-5	-7.769e-9
0.042	-2.876e-5	-7.774e-9
0.036	-2.890e-5	-7.782e-9
0.030	-2.898e-5	-7.790e-9
0.024	-2.905e-5	-7.782e-9
0.018	-2.915e-5	-7.778e-9
0.012	-2.927e-5	-7.774e-9
0.006	-2.932e-5	-7.774e-9
0.000	-2.959e-5	-7.792e-9
-0.006	-2.949e-5	-7.776e-9
-0.012	-2.955e-5	-7.785e-9
-0.018	-2.954e-5	-7.781e-9
-0.024	-2.957e-5	-7.780e-9
-0.030	-2.958e-5	-7.779e-9
-0.036	-2.958e-5	-7.790e-9
-0.042	-2.950e-5	-7.783e-9
-0.048	-2.945e-5	-7.781e-9
-0.054	-2.941e-5	-7.784e-9
-0.060	-2.937e-5	-7.782e-9
-0.066	-2.926e-5	-7.789e-9
-0.072	-2.915e-5	-7.781e-9
-0.078	-2.905e-5	-7.771e-9
-0.084	-2.897e-5	-7.785e-9
-0.090	-2.883e-5	-7.777e-9
-0.096	-2.868e-5	-7.779e-9
-0.102	-2.857e-5	-7.780e-9
-0.108	-2.845e-5	-7.775e-9
-0.114	-2.828e-5	-7.771e-9
-0.120	-2.815e-5	-7.765e-9
-0.126	-2.801e-5	-7.779e-9
-0.132	-2.791e-5	-7.767e-9
-0.138	-2.777e-5	-7.759e-9
-0.144	-2.764e-5	-7.762e-9
-0.150	-2.757e-5	-7.770e-9
-0.156	-2.753e-5	-7.756e-9
-0.162	-2.744e-5	-7.770e-9
-0.168	-2.742e-5	-7.769e-9
-0.174	-2.739e-5	-7.762e-9
-0.180	-2.742e-5	-7.761e-9
-0.186	-2.745e-5	-7.754e-9
-0.192	-2.752e-5	-7.759e-9
-0.198	-2.764e-5	-7.754e-9
-0.204	-2.783e-5	-7.766e-9
-0.210	-2.803e-5	-7.766e-9
-0.216	-2.827e-5	-7.776e-9
-0.222	-2.855e-5	-7.775e-9
-0.228	-2.890e-5	-7.783e-9
-0.234	-2.925e-5	-7.780e-9
-0.240	-2.967e-5	-7.786e-9
-0.246	-3.012e-5	-7.773e-9
-0.252	-3.064e-5	-7.774e-9
-0.258	-3.120e-5	-7.782e-9
-0.264	-3.181e-5	-7.776e-9
-0.270	-3.247e-5	-7.772e-9
-0.276	-3.319e-5	-7.771e-9
-0.282	-3.389e-5	-7.761e-9
-0.288	-3.470e-5	-7.766e-9
-0.294	-3.556e-5	-7.762e-9
-0.300	-3.645e-5	-7.773e-9
-0.306	-3.739e-5	-7.755e-9
-0.312	-3.840e-5	-7.763e-9
-0.318	-3.947e-5	-7.771e-9
-0.324	-4.062e-5	-7.769e-9
-0.330	-4.180e-5	-7.761e-9
-0.336	-4.303e-5	-7.750e-9
-0.342	-4.436e-5	-7.754e-9
-0.348	-4.579e-5	-7.765e-9
-0.354	-4.719e-5	-7.749e-9
-0.360	-4.865e-5	-7.783e-9
-0.366	-5.013e-5	-7.781e-9
-0.372	-5.176e-5	-7.778e-9
-0.378	-5.333e-5	-7.778e-9
-0.384	-5.493e-5	-7.786e-9
-0.390	-5.662e-5	-7.770e-9
-0.396	-5.836e-5	-7.778e-9
-0.402	-6.008e-5	-7.767e-9
-0.408	-6.186e-5	-7.770e-9
-0.414	-6.368e-5	-7.764e-9
-0.420	-6.544e-5	-7.766e-9
-0.426	-6.723e-5	-7.765e-9
-0.432	-6.899e-5	-7.776e-9
-0.438	-7.080e-5	-7.774e-9
-0.444	-7.260e-5	-7.769e-9
-0.450	-7.432e-5	-7.775e-9
-0.456	-7.604e-5	-7.750e-9
-0.462	-7.770e-5	-7.762e-9
-0.468	-7.937e-5	-7.757e-9
-0.474	-8.093e-5	-7.759e-9
-0.480	-8.246e-5	-7.751e-9
-0.486	-8.391e-5	-7.755e-9
-0.492	-8.539e-5	-7.748e-9
-0.498	-8.672e-5	-7.746e-9
-0.504	-8.795e-5	-7.784e-9
-0.510	-8.915e-5	-7.798e-9
-0.516	-9.029e-5	-7.787e-9
-0.522	-9.131e-5	-7.787e-9
-0.528	-9.226e-5	-7.785e-9
-0.534	-9.311e-5	-7.790e-9
-0.540	-9.393e-5	-7.780e-9
-0.546	-9.463e-5	-7.777e-9
-0.552	-9.529e-5	-7.777e-9
-0.558	-9.588e-5	-7.785e-9
-0.564	-9.641e-5	-7.774e-9
-0.570	-9.684e-5	-7.778e-9
-0.576	-9.722e-5	-7.770e-9
-0.582	-9.755e-5	-7.782e-9
-0.588	-9.787e-5	-7.778e-9
-0.594	-9.811e-5	-7.775e-9
-0.599	-9.830e-5	-7.789e-9