File: data/cv/0620/2000 rpm cv2.txt
June 20, 2016   18:11:19
Cyclic Voltammetry
File: c:\users\potentio2\desktop\suda\20160620\2000 rpm cv2.txt
Data Source:  Experiment
Instrument Model:  CHI7082E
Header:
Note:

Init E (V) = 0
High E (V) = 0.9
Low E (V) = -0.6
Init P/N = P
Scan Rate (V/s) = 0.01
Segment = 6
Sample Interval (V) = 0.001
Quiet Time (sec) = 2
Sensitivity (A/V) = 0.001
Sens 2 (A/V) = 0.001

Segment 1:

Segment 2:

Segment 3:
Ep = 0.151V
ip = 1.267e-5A
Ah = 1.260e-4C

Segment 4:

Segment 5:
Ep = 0.159V
ip = 1.185e-5A
Ah = 1.176e-4C

Segment 6:

Current 2:

Segment 1:

Segment 2:

Segment 3:

Segment 4:
Ep = -0.037V
ip = -2.681e-8A
Ah = -1.156e-7C

Ep = -0.281V
ip = -1.960e-8A
Ah = -7.120e-8C

Segment 5:
Segment 6:

Potential/V	i1/A	i2/A

0.000	-1.603e-5	-7.594e-6
0.006	-1.573e-6	-7.517e-6
0.012	5.411e-6	-7.537e-6
0.018	9.799e-6	-7.544e-6
0.024	1.282e-5	-7.534e-6
0.030	1.500e-5	-7.554e-6
0.036	1.661e-5	-7.543e-6
0.042	1.791e-5	-7.555e-6
0.048	1.890e-5	-7.563e-6
0.054	1.972e-5	-7.548e-6
0.060	2.032e-5	-7.564e-6
0.066	2.079e-5	-7.563e-6
0.072	2.109e-5	-7.565e-6
0.078	2.140e-5	-7.562e-6
0.084	2.170e-5	-7.576e-6
0.090	2.189e-5	-7.570e-6
0.096	2.205e-5	-7.577e-6
0.102	2.227e-5	-7.583e-6
0.108	2.244e-5	-7.578e-6
0.114	2.258e-5	-7.580e-6
0.120	2.262e-5	-7.579e-6
0.126	2.272e-5	-7.585e-6
0.132	2.275e-5	-7.579e-6
0.138	2.281e-5	-7.583e-6
0.144	2.288e-5	-7.592e-6
0.150	2.297e-5	-7.589e-6
0.156	2.301e-5	-7.587e-6
0.162	2.304e-5	-7.600e-6
0.168	2.308e-5	-7.590e-6
0.174	2.312e-5	-7.595e-6
0.180	2.313e-5	-7.602e-6
0.186	2.320e-5	-7.599e-6
0.192	2.324e-5	-7.601e-6
0.198	2.316e-5	-7.606e-6
0.204	2.320e-5	-7.600e-6
0.210	2.327e-5	-7.598e-6
0.216	2.320e-5	-7.599e-6
0.222	2.332e-5	-7.613e-6
0.228	2.334e-5	-7.601e-6
0.234	2.334e-5	-7.610e-6
0.240	2.330e-5	-7.602e-6
0.246	2.332e-5	-7.601e-6
0.252	2.334e-5	-7.607e-6
0.258	2.338e-5	-7.609e-6
0.264	2.340e-5	-7.606e-6
0.270	2.342e-5	-7.607e-6
0.276	2.345e-5	-7.608e-6
0.282	2.337e-5	-7.611e-6
0.288	2.339e-5	-7.610e-6
0.294	2.339e-5	-7.615e-6
0.300	2.348e-5	-7.628e-6
0.306	2.344e-5	-7.618e-6
0.312	2.350e-5	-7.612e-6
0.318	2.354e-5	-7.620e-6
0.324	2.363e-5	-7.611e-6
0.330	2.356e-5	-7.618e-6
0.336	2.350e-5	-7.611e-6
0.342	2.353e-5	-7.615e-6
0.348	2.357e-5	-7.618e-6
0.354	2.359e-5	-7.625e-6
0.360	2.356e-5	-7.624e-6
0.366	2.362e-5	-7.625e-6
0.372	2.367e-5	-7.640e-6
0.378	2.374e-5	-7.639e-6
0.384	2.374e-5	-7.631e-6
0.390	2.381e-5	-7.645e-6
0.396	2.381e-5	-7.643e-6
0.402	2.384e-5	-7.633e-6
0.408	2.386e-5	-7.635e-6
0.414	2.402e-5	-7.635e-6
0.420	2.409e-5	-7.638e-6
0.426	2.411e-5	-7.636e-6
0.432	2.414e-5	-7.634e-6
0.438	2.423e-5	-7.632e-6
0.444	2.432e-5	-7.637e-6
0.450	2.436e-5	-7.641e-6
0.456	2.443e-5	-7.638e-6
0.462	2.457e-5	-7.627e-6
0.468	2.466e-5	-7.638e-6
0.474	2.477e-5	-7.643e-6
0.480	2.491e-5	-7.640e-6
0.486	2.511e-5	-7.640e-6
0.492	2.517e-5	-7.640e-6
0.498	2.517e-5	-7.640e-6
0.504	2.524e-5	-7.644e-6
0.510	2.542e-5	-7.651e-6
0.516	2.563e-5	-7.644e-6
0.522	2.575e-5	-7.641e-6
0.528	2.586e-5	-7.645e-6
0.534	2.606e-5	-7.648e-6
0.540	2.628e-5	-7.646e-6
0.546	2.645e-5	-7.648e-6
0.552	2.662e-5	-7.655e-6
0.558	2.687e-5	-7.658e-6
0.564	2.715e-5	-7.656e-6
0.570	2.732e-5	-7.658e-6
0.576	2.759e-5	-7.655e-6
0.582	2.792e-5	-7.660e-6
0.588	2.826e-5	-7.652e-6
0.594	2.858e-5	-7.672e-6
0.600	2.886e-5	-7.660e-6
0.606	2.923e-5	-7.661e-6
0.612	2.969e-5	-7.668e-6
0.618	3.011e-5	-7.658e-6
0.624	3.048e-5	-7.653e-6
0.630	3.104e-5	-7.622e-6
0.636	3.153e-5	-7.618e-6
0.642	3.197e-5	-7.624e-6
0.648	3.250e-5	-7.633e-6
0.654	3.303e-5	-7.630e-6
0.660	3.358e-5	-7.633e-6
0.666	3.415e-5	-7.639e-6
0.672	3.467e-5	-7.636e-6
0.678	3.525e-5	-7.642e-6
0.684	3.581e-5	-7.627e-6
0.690	3.628e-5	-7.643e-6
0.696	3.676e-5	-7.649e-6
0.702	3.735e-5	-7.649e-6
0.708	3.790e-5	-7.655e-6
0.714	3.843e-5	-7.646e-6
0.720	3.892e-5	-7.668e-6
0.726	3.948e-5	-7.658e-6
0.732	4.006e-5	-7.656e-6
0.738	4.061e-5	-7.650e-6
0.744	4.116e-5	-7.652e-6
0.750	4.170e-5	-7.650e-6
0.756	4.229e-5	-7.660e-6
0.762	4.284e-5	-7.662e-6
0.768	4.350e-5	-7.654e-6
0.774	4.411e-5	-7.658e-6
0.780	4.484e-5	-7.665e-6
0.786	4.555e-5	-7.661e-6
0.792	4.630e-5	-7.672e-6
0.798	4.697e-5	-7.658e-6
0.804	4.778e-5	-7.667e-6
0.810	4.859e-5	-7.673e-6
0.816	4.943e-5	-7.677e-6
0.822	5.044e-5	-7.669e-6
0.828	5.141e-5	-7.656e-6
0.834	5.238e-5	-7.660e-6
0.840	5.342e-5	-7.648e-6
0.846	5.452e-5	-7.669e-6
0.852	5.578e-5	-7.652e-6
0.858	5.699e-5	-7.669e-6
0.864	5.826e-5	-7.674e-6
0.870	5.959e-5	-7.679e-6
0.876	6.105e-5	-7.666e-6
0.882	6.249e-5	-7.674e-6
0.888	6.400e-5	-7.673e-6
0.894	6.563e-5	-7.668e-6
0.900	6.290e-5	-7.698e-6
0.894	3.455e-5	-7.686e-6
0.888	2.706e-5	-7.695e-6
0.882	2.192e-5	-7.679e-6
0.876	1.801e-5	-7.681e-6
0.870	1.496e-5	-7.680e-6
0.864	1.245e-5	-7.681e-6
0.858	1.035e-5	-7.688e-6
0.852	8.568e-6	-7.680e-6
0.846	6.932e-6	-7.677e-6
0.840	5.565e-6	-7.677e-6
0.834	4.314e-6	-7.671e-6
0.828	3.184e-6	-7.670e-6
0.822	2.237e-6	-7.659e-6
0.816	1.276e-6	-7.678e-6
0.810	5.178e-7	-7.679e-6
0.804	-2.567e-7	-7.681e-6
0.798	-8.176e-7	-7.674e-6
0.792	-1.453e-6	-7.676e-6
0.786	-2.091e-6	-7.671e-6
0.780	-2.686e-6	-7.662e-6
0.774	-3.190e-6	-7.672e-6
0.768	-3.689e-6	-7.664e-6
0.762	-4.079e-6	-7.666e-6
0.756	-4.493e-6	-7.687e-6
0.750	-4.847e-6	-7.691e-6
0.744	-5.169e-6	-7.668e-6
0.738	-5.490e-6	-7.670e-6
0.732	-5.829e-6	-7.670e-6
0.726	-6.064e-6	-7.679e-6
0.720	-6.425e-6	-7.688e-6
0.714	-6.717e-6	-7.669e-6
0.708	-6.938e-6	-7.672e-6
0.702	-7.123e-6	-7.672e-6
0.696	-7.378e-6	-7.669e-6
0.690	-7.598e-6	-7.672e-6
0.684	-7.757e-6	-7.665e-6
0.678	-7.922e-6	-7.664e-6
0.672	-8.096e-6	-7.655e-6
0.666	-8.263e-6	-7.675e-6
0.660	-8.377e-6	-7.666e-6
0.654	-8.512e-6	-7.681e-6
0.648	-8.674e-6	-7.702e-6
0.642	-8.837e-6	-7.722e-6
0.636	-8.940e-6	-7.720e-6
0.630	-9.078e-6	-7.727e-6
0.624	-9.200e-6	-7.745e-6
0.618	-9.360e-6	-7.750e-6
0.612	-9.497e-6	-7.759e-6
0.606	-9.583e-6	-7.767e-6
0.600	-9.706e-6	-7.763e-6
0.594	-9.827e-6	-7.769e-6
0.588	-9.952e-6	-7.769e-6
0.582	-1.002e-5	-7.765e-6
0.576	-1.014e-5	-7.768e-6
0.570	-1.026e-5	-7.764e-6
0.564	-1.042e-5	-7.756e-6
0.558	-1.045e-5	-7.755e-6
0.552	-1.057e-5	-7.768e-6
0.546	-1.071e-5	-7.766e-6
0.540	-1.080e-5	-7.768e-6
0.534	-1.086e-5	-7.762e-6
0.528	-1.096e-5	-7.762e-6
0.522	-1.102e-5	-7.770e-6
0.516	-1.114e-5	-7.762e-6
0.510	-1.125e-5	-7.756e-6
0.504	-1.136e-5	-7.767e-6
0.498	-1.145e-5	-7.763e-6
0.492	-1.155e-5	-7.771e-6
0.486	-1.159e-5	-7.764e-6
0.480	-1.172e-5	-7.761e-6
0.474	-1.182e-5	-7.769e-6
0.468	-1.191e-5	-7.762e-6
0.462	-1.195e-5	-7.762e-6
0.456	-1.205e-5	-7.757e-6
0.450	-1.219e-5	-7.758e-6
0.444	-1.228e-5	-7.770e-6
0.438	-1.235e-5	-7.761e-6
0.432	-1.241e-5	-7.768e-6
0.426	-1.248e-5	-7.758e-6
0.420	-1.258e-5	-7.756e-6
0.414	-1.267e-5	-7.766e-6
0.408	-1.281e-5	-7.760e-6
0.402	-1.283e-5	-7.759e-6
0.396	-1.288e-5	-7.756e-6
0.390	-1.293e-5	-7.750e-6
0.384	-1.296e-5	-7.760e-6
0.378	-1.300e-5	-7.748e-6
0.372	-1.301e-5	-7.760e-6
0.366	-1.303e-5	-7.760e-6
0.360	-1.305e-5	-7.754e-6
0.354	-1.311e-5	-7.758e-6
0.348	-1.314e-5	-7.759e-6
0.342	-1.314e-5	-7.752e-6
0.336	-1.323e-5	-7.755e-6
0.330	-1.328e-5	-7.757e-6
0.324	-1.338e-5	-7.769e-6
0.318	-1.342e-5	-7.761e-6
0.312	-1.352e-5	-7.758e-6
0.306	-1.364e-5	-7.759e-6
0.300	-1.373e-5	-7.761e-6
0.294	-1.377e-5	-7.765e-6
0.288	-1.387e-5	-7.757e-6
0.282	-1.389e-5	-7.768e-6
0.276	-1.402e-5	-7.772e-6
0.270	-1.410e-5	-7.769e-6
0.264	-1.419e-5	-7.762e-6
0.258	-1.428e-5	-7.775e-6
0.252	-1.439e-5	-7.761e-6
0.246	-1.449e-5	-7.767e-6
0.240	-1.461e-5	-7.772e-6
0.234	-1.473e-5	-7.757e-6
0.228	-1.481e-5	-7.758e-6
0.222	-1.493e-5	-7.755e-6
0.216	-1.505e-5	-7.757e-6
0.210	-1.516e-5	-7.755e-6
0.204	-1.537e-5	-7.762e-6
0.198	-1.544e-5	-7.754e-6
0.192	-1.556e-5	-7.769e-6
0.186	-1.568e-5	-7.759e-6
0.180	-1.585e-5	-7.761e-6
0.174	-1.591e-5	-7.756e-6
0.168	-1.603e-5	-7.755e-6
0.162	-1.620e-5	-7.751e-6
0.156	-1.633e-5	-7.760e-6
0.150	-1.648e-5	-7.758e-6
0.144	-1.660e-5	-7.753e-6
0.138	-1.674e-5	-7.751e-6
0.132	-1.689e-5	-7.764e-6
0.126	-1.698e-5	-7.769e-6
0.120	-1.711e-5	-7.744e-6
0.114	-1.729e-5	-7.748e-6
0.108	-1.746e-5	-7.751e-6
0.102	-1.763e-5	-7.764e-6
0.096	-1.777e-5	-7.755e-6
0.090	-1.790e-5	-7.752e-6
0.084	-1.806e-5	-7.758e-6
0.078	-1.819e-5	-7.757e-6
0.072	-1.829e-5	-7.757e-6
0.066	-1.844e-5	-7.758e-6
0.060	-1.857e-5	-7.756e-6
0.054	-1.867e-5	-7.759e-6
0.048	-1.878e-5	-7.755e-6
0.042	-1.891e-5	-7.766e-6
0.036	-1.904e-5	-7.761e-6
0.030	-1.913e-5	-7.761e-6
0.024	-1.914e-5	-7.754e-6
0.018	-1.923e-5	-7.757e-6
0.012	-1.930e-5	-7.752e-6
0.006	-1.929e-5	-7.752e-6
0.000	-1.944e-5	-7.779e-6
-0.006	-1.941e-5	-7.764e-6
-0.012	-1.942e-5	-7.772e-6
-0.018	-1.939e-5	-7.767e-6
-0.024	-1.936e-5	-7.775e-6
-0.030	-1.930e-5	-7.771e-6
-0.036	-1.928e-5	-7.758e-6
-0.042	-1.918e-5	-7.773e-6
-0.048	-1.909e-5	-7.776e-6
-0.054	-1.902e-5	-7.773e-6
-0.060	-1.892e-5	-7.768e-6
-0.066	-1.877e-5	-7.768e-6
-0.072	-1.859e-5	-7.775e-6
-0.078	-1.848e-5	-7.758e-6
-0.084	-1.832e-5	-7.764e-6
-0.090	-1.814e-5	-7.761e-6
-0.096	-1.794e-5	-7.761e-6
-0.102	-1.778e-5	-7.769e-6
-0.108	-1.761e-5	-7.768e-6
-0.114	-1.739e-5	-7.758e-6
-0.120	-1.720e-5	-7.775e-6
-0.126	-1.705e-5	-7.772e-6
-0.132	-1.694e-5	-7.769e-6
-0.138	-1.677e-5	-7.771e-6
-0.144	-1.659e-5	-7.770e-6
-0.150	-1.640e-5	-7.767e-6
-0.156	-1.625e-5	-7.775e-6
-0.162	-1.611e-5	-7.767e-6
-0.168	-1.599e-5	-7.764e-6
-0.174	-1.595e-5	-7.771e-6
-0.180	-1.590e-5	-7.767e-6
-0.186	-1.591e-5	-7.778e-6
-0.192	-1.591e-5	-7.772e-6
-0.198	-1.592e-5	-7.766e-6
-0.204	-1.601e-5	-7.769e-6
-0.210	-1.610e-5	-7.760e-6
-0.216	-1.622e-5	-7.763e-6
-0.222	-1.636e-5	-7.771e-6
-0.228	-1.658e-5	-7.775e-6
-0.234	-1.685e-5	-7.765e-6
-0.240	-1.710e-5	-7.767e-6
-0.246	-1.742e-5	-7.770e-6
-0.252	-1.785e-5	-7.765e-6
-0.258	-1.835e-5	-7.761e-6
-0.264	-1.880e-5	-7.766e-6
-0.270	-1.939e-5	-7.766e-6
-0.276	-2.004e-5	-7.764e-6
-0.282	-2.074e-5	-7.752e-6
-0.288	-2.149e-5	-7.755e-6
-0.294	-2.232e-5	-7.763e-6
-0.300	-2.316e-5	-7.763e-6
-0.306	-2.405e-5	-7.770e-6
-0.312	-2.506e-5	-7.751e-6
-0.318	-2.616e-5	-7.754e-6
-0.324	-2.734e-5	-7.749e-6
-0.330	-2.858e-5	-7.758e-6
-0.336	-2.992e-5	-7.765e-6
-0.342	-3.138e-5	-7.759e-6
-0.348	-3.294e-5	-7.764e-6
-0.354	-3.448e-5	-7.751e-6
-0.360	-3.614e-5	-7.749e-6
-0.366	-3.786e-5	-7.747e-6
-0.372	-3.965e-5	-7.753e-6
-0.378	-4.151e-5	-7.748e-6
-0.384	-4.337e-5	-7.748e-6
-0.390	-4.535e-5	-7.740e-6
-0.396	-4.733e-5	-7.731e-6
-0.402	-4.928e-5	-7.780e-6
-0.408	-5.131e-5	-7.759e-6
-0.414	-5.338e-5	-7.759e-6
-0.420	-5.542e-5	-7.753e-6
-0.426	-5.747e-5	-7.749e-6
-0.432	-5.958e-5	-7.762e-6
-0.438	-6.162e-5	-7.748e-6
-0.444	-6.371e-5	-7.758e-6
-0.450	-6.566e-5	-7.750e-6
-0.456	-6.762e-5	-7.744e-6
-0.462	-6.950e-5	-7.756e-6
-0.468	-7.140e-5	-7.748e-6
-0.474	-7.321e-5	-7.749e-6
-0.480	-7.490e-5	-7.744e-6
-0.486	-7.655e-5	-7.745e-6
-0.492	-7.813e-5	-7.749e-6
-0.498	-7.960e-5	-7.750e-6
-0.504	-8.099e-5	-7.738e-6
-0.510	-8.232e-5	-7.730e-6
-0.516	-8.357e-5	-7.729e-6
-0.522	-8.469e-5	-7.732e-6
-0.528	-8.571e-5	-7.730e-6
-0.534	-8.663e-5	-7.728e-6
-0.540	-8.743e-5	-7.753e-6
-0.546	-8.810e-5	-7.774e-6
-0.552	-8.874e-5	-7.779e-6
-0.558	-8.926e-5	-7.784e-6
-0.564	-8.975e-5	-7.782e-6
-0.570	-9.011e-5	-7.773e-6
-0.576	-9.034e-5	-7.791e-6
-0.582	-9.056e-5	-7.782e-6
-0.588	-9.079e-5	-7.784e-6
-0.594	-9.091e-5	-7.778e-6
-0.600	-8.833e-5	-7.745e-6
-0.594	-7.483e-5	-7.734e-6
-0.588	-6.733e-5	-7.729e-6
-0.582	-6.147e-5	-7.744e-6
-0.576	-5.648e-5	-7.733e-6
-0.570	-5.211e-5	-7.753e-6
-0.564	-4.823e-5	-7.741e-6
-0.558	-4.471e-5	-7.718e-6
-0.552	-4.150e-5	-7.730e-6
-0.546	-3.851e-5	-7.733e-6
-0.540	-3.578e-5	-7.731e-6
-0.534	-3.319e-5	-7.739e-6
-0.528	-3.077e-5	-7.755e-6
-0.522	-2.845e-5	-7.744e-6
-0.516	-2.629e-5	-7.756e-6
-0.510	-2.428e-5	-7.752e-6
-0.504	-2.236e-5	-7.747e-6
-0.498	-2.047e-5	-7.756e-6
-0.492	-1.866e-5	-7.752e-6
-0.486	-1.700e-5	-7.758e-6
-0.480	-1.539e-5	-7.759e-6
-0.474	-1.382e-5	-7.760e-6
-0.468	-1.224e-5	-7.755e-6
-0.462	-1.072e-5	-7.763e-6
-0.456	-9.367e-6	-7.754e-6
-0.450	-8.094e-6	-7.679e-6
-0.444	-6.801e-6	-7.673e-6
-0.438	-5.534e-6	-7.675e-6
-0.432	-4.365e-6	-7.680e-6
-0.426	-3.202e-6	-7.663e-6
-0.420	-1.991e-6	-7.678e-6
-0.414	-9.121e-7	-7.685e-6
-0.408	8.286e-8	-7.680e-6
-0.402	1.132e-6	-7.678e-6
-0.396	2.046e-6	-7.665e-6
-0.390	2.948e-6	-7.672e-6
-0.384	3.847e-6	-7.694e-6
-0.378	4.787e-6	-7.682e-6
-0.372	5.638e-6	-7.684e-6
-0.366	6.452e-6	-7.682e-6
-0.360	7.169e-6	-7.681e-6
-0.354	7.927e-6	-7.692e-6
-0.348	8.642e-6	-7.687e-6
-0.342	9.269e-6	-7.698e-6
-0.336	9.875e-6	-7.697e-6
-0.330	1.053e-5	-7.696e-6
-0.324	1.115e-5	-7.682e-6
-0.318	1.166e-5	-7.676e-6
-0.312	1.211e-5	-7.680e-6
-0.306	1.263e-5	-7.689e-6
-0.300	1.314e-5	-7.687e-6
-0.294	1.373e-5	-7.692e-6
-0.288	1.401e-5	-7.698e-6
-0.282	1.435e-5	-7.684e-6
-0.276	1.481e-5	-7.702e-6
-0.270	1.518e-5	-7.697e-6
-0.264	1.547e-5	-7.695e-6
-0.258	1.583e-5	-7.696e-6
-0.252	1.622e-5	-7.694e-6
-0.246	1.658e-5	-7.702e-6
-0.240	1.682e-5	-7.698e-6
-0.234	1.710e-5	-7.691e-6
-0.228	1.730e-5	-7.698e-6
-0.222	1.760e-5	-7.700e-6
-0.216	1.791e-5	-7.696e-6
-0.210	1.808e-5	-7.703e-6
-0.204	1.834e-5	-7.695e-6
-0.198	1.853e-5	-7.697e-6
-0.192	1.870e-5	-7.690e-6
-0.186	1.898e-5	-7.692e-6
-0.180	1.929e-5	-7.691e-6
-0.174	1.939e-5	-7.699e-6
-0.168	1.950e-5	-7.688e-6
-0.162	1.956e-5	-7.697e-6
-0.156	1.974e-5	-7.692e-6
-0.150	1.988e-5	-7.693e-6
-0.144	2.003e-5	-7.679e-6
-0.138	2.018e-5	-7.705e-6
-0.132	2.040e-5	-7.701e-6
-0.126	2.050e-5	-7.706e-6
-0.120	2.063e-5	-7.703e-6
-0.114	2.091e-5	-7.695e-6
-0.108	2.101e-5	-7.706e-6
-0.102	2.108e-5	-7.694e-6
-0.096	2.124e-5	-7.699e-6
-0.090	2.143e-5	-7.702e-6
-0.084	2.161e-5	-7.696e-6
-0.078	2.179e-5	-7.684e-6
-0.072	2.203e-5	-7.698e-6
-0.066	2.227e-5	-7.699e-6
-0.060	2.247e-5	-7.698e-6
-0.054	2.270e-5	-7.692e-6
-0.048	2.297e-5	-7.699e-6
-0.042	2.339e-5	-7.700e-6
-0.036	2.372e-5	-7.698e-6
-0.030	2.403e-5	-7.698e-6
-0.024	2.438e-5	-7.701e-6
-0.018	2.479e-5	-7.708e-6
-0.012	2.521e-5	-7.709e-6
-0.006	2.566e-5	-7.709e-6
-0.000	2.636e-5	-7.696e-6
0.006	2.674e-5	-7.691e-6
0.012	2.719e-5	-7.695e-6
0.018	2.773e-5	-7.696e-6
0.024	2.836e-5	-7.701e-6
0.030	2.894e-5	-7.705e-6
0.036	2.965e-5	-7.708e-6
0.042	3.030e-5	-7.690e-6
0.048	3.097e-5	-7.675e-6
0.054	3.170e-5	-7.670e-6
0.060	3.222e-5	-7.673e-6
0.066	3.280e-5	-7.681e-6
0.072	3.350e-5	-7.682e-6
0.078	3.426e-5	-7.683e-6
0.084	3.493e-5	-7.688e-6
0.090	3.542e-5	-7.690e-6
0.096	3.594e-5	-7.688e-6
0.102	3.676e-5	-7.695e-6
0.108	3.745e-5	-7.686e-6
0.114	3.809e-5	-7.687e-6
0.120	3.848e-5	-7.678e-6
0.126	3.896e-5	-7.687e-6
0.132	3.942e-5	-7.685e-6
0.138	3.995e-5	-7.685e-6
0.144	4.033e-5	-7.678e-6
0.150	4.058e-5	-7.680e-6
0.156	4.060e-5	-7.681e-6
0.162	4.055e-5	-7.683e-6
0.168	4.036e-5	-7.687e-6
0.174	3.998e-5	-7.689e-6
0.180	3.923e-5	-7.702e-6
0.186	3.840e-5	-7.698e-6
0.192	3.738e-5	-7.686e-6
0.198	3.646e-5	-7.685e-6
0.204	3.556e-5	-7.688e-6
0.210	3.486e-5	-7.686e-6
0.216	3.427e-5	-7.680e-6
0.222	3.378e-5	-7.683e-6
0.228	3.333e-5	-7.669e-6
0.234	3.293e-5	-7.675e-6
0.240	3.264e-5	-7.667e-6
0.246	3.241e-5	-7.675e-6
0.252	3.228e-5	-7.669e-6
0.258	3.208e-5	-7.667e-6
0.264	3.193e-5	-7.677e-6
0.270	3.187e-5	-7.686e-6
0.276	3.186e-5	-7.675e-6
0.282	3.176e-5	-7.691e-6
0.288	3.171e-5	-7.690e-6
0.294	3.169e-5	-7.681e-6
0.300	3.169e-5	-7.671e-6
0.306	3.162e-5	-7.688e-6
0.312	3.156e-5	-7.674e-6
0.318	3.152e-5	-7.663e-6
0.324	3.143e-5	-7.667e-6
0.330	3.127e-5	-7.662e-6
0.336	3.109e-5	-7.681e-6
0.342	3.096e-5	-7.666e-6
0.348	3.089e-5	-7.678e-6
0.354	3.068e-5	-7.688e-6
0.360	3.047e-5	-7.707e-6
0.366	3.031e-5	-7.710e-6
0.372	3.012e-5	-7.713e-6
0.378	3.001e-5	-7.714e-6
0.384	2.992e-5	-7.706e-6
0.390	2.970e-5	-7.715e-6
0.396	2.951e-5	-7.703e-6
0.402	2.939e-5	-7.711e-6
0.408	2.917e-5	-7.714e-6
0.414	2.915e-5	-7.704e-6
0.420	2.911e-5	-7.700e-6
0.426	2.894e-5	-7.704e-6
0.432	2.880e-5	-7.704e-6
0.438	2.876e-5	-7.713e-6
0.444	2.873e-5	-7.693e-6
0.450	2.865e-5	-7.701e-6
0.456	2.857e-5	-7.706e-6
0.462	2.859e-5	-7.694e-6
0.468	2.863e-5	-7.697e-6
0.474	2.854e-5	-7.692e-6
0.480	2.852e-5	-7.701e-6
0.486	2.859e-5	-7.711e-6
0.492	2.872e-5	-7.704e-6
0.498	2.875e-5	-7.707e-6
0.504	2.876e-5	-7.711e-6
0.510	2.878e-5	-7.712e-6
0.516	2.892e-5	-7.711e-6
0.522	2.898e-5	-7.712e-6
0.528	2.909e-5	-7.716e-6
0.534	2.932e-5	-7.713e-6
0.540	2.951e-5	-7.712e-6
0.546	2.965e-5	-7.715e-6
0.552	2.984e-5	-7.723e-6
0.558	3.005e-5	-7.713e-6
0.564	3.038e-5	-7.697e-6
0.570	3.058e-5	-7.697e-6
0.576	3.079e-5	-7.694e-6
0.582	3.117e-5	-7.671e-6
0.588	3.160e-5	-7.673e-6
0.594	3.205e-5	-7.684e-6
0.600	3.241e-5	-7.680e-6
0.606	3.281e-5	-7.704e-6
0.612	3.328e-5	-7.682e-6
0.618	3.371e-5	-7.686e-6
0.624	3.420e-5	-7.690e-6
0.630	3.470e-5	-7.694e-6
0.636	3.523e-5	-7.690e-6
0.642	3.579e-5	-7.687e-6
0.648	3.640e-5	-7.690e-6
0.654	3.702e-5	-7.689e-6
0.660	3.766e-5	-7.694e-6
0.666	3.830e-5	-7.699e-6
0.672	3.883e-5	-7.700e-6
0.678	3.943e-5	-7.702e-6
0.684	4.005e-5	-7.706e-6
0.690	4.060e-5	-7.691e-6
0.696	4.114e-5	-7.699e-6
0.702	4.175e-5	-7.693e-6
0.708	4.240e-5	-7.701e-6
0.714	4.289e-5	-7.696e-6
0.720	4.340e-5	-7.684e-6
0.726	4.391e-5	-7.704e-6
0.732	4.448e-5	-7.700e-6
0.738	4.496e-5	-7.700e-6
0.744	4.544e-5	-7.697e-6
0.750	4.603e-5	-7.689e-6
0.756	4.661e-5	-7.702e-6
0.762	4.711e-5	-7.713e-6
0.768	4.769e-5	-7.706e-6
0.774	4.832e-5	-7.704e-6
0.780	4.894e-5	-7.707e-6
0.786	4.950e-5	-7.710e-6
0.792	5.011e-5	-7.713e-6
0.798	5.083e-5	-7.697e-6
0.804	5.155e-5	-7.699e-6
0.810	5.221e-5	-7.699e-6
0.816	5.296e-5	-7.698e-6
0.822	5.391e-5	-7.692e-6
0.828	5.479e-5	-7.693e-6
0.834	5.566e-5	-7.694e-6
0.840	5.646e-5	-7.698e-6
0.846	5.739e-5	-7.698e-6
0.852	5.848e-5	-7.708e-6
0.858	5.951e-5	-7.705e-6
0.864	6.068e-5	-7.690e-6
0.870	6.197e-5	-7.702e-6
0.876	6.333e-5	-7.700e-6
0.882	6.473e-5	-7.708e-6
0.888	6.615e-5	-7.708e-6
0.894	6.779e-5	-7.713e-6
0.900	6.509e-5	-7.725e-6
0.894	3.714e-5	-7.704e-6
0.888	2.989e-5	-7.724e-6
0.882	2.483e-5	-7.724e-6
0.876	2.089e-5	-7.713e-6
0.870	1.770e-5	-7.708e-6
0.864	1.504e-5	-7.709e-6
0.858	1.280e-5	-7.703e-6
0.852	1.079e-5	-7.710e-6
0.846	9.141e-6	-7.726e-6
0.840	7.667e-6	-7.702e-6
0.834	6.347e-6	-7.704e-6
0.828	5.113e-6	-7.701e-6
0.822	4.057e-6	-7.708e-6
0.816	2.931e-6	-7.701e-6
0.810	1.993e-6	-7.701e-6
0.804	1.164e-6	-7.709e-6
0.798	4.145e-7	-7.718e-6
0.792	-3.128e-7	-7.710e-6
0.786	-9.475e-7	-7.697e-6
0.780	-1.526e-6	-7.704e-6
0.774	-2.044e-6	-7.702e-6
0.768	-2.616e-6	-7.700e-6
0.762	-3.093e-6	-7.693e-6
0.756	-3.591e-6	-7.704e-6
0.750	-4.005e-6	-7.701e-6
0.744	-4.413e-6	-7.705e-6
0.738	-4.781e-6	-7.707e-6
0.732	-5.155e-6	-7.690e-6
0.726	-5.448e-6	-7.700e-6
0.720	-5.749e-6	-7.692e-6
0.714	-6.047e-6	-7.686e-6
0.708	-6.311e-6	-7.694e-6
0.702	-6.507e-6	-7.700e-6
0.696	-6.769e-6	-7.700e-6
0.690	-6.995e-6	-7.686e-6
0.684	-7.213e-6	-7.699e-6
0.678	-7.378e-6	-7.694e-6
0.672	-7.532e-6	-7.696e-6
0.666	-7.731e-6	-7.695e-6
0.660	-7.879e-6	-7.697e-6
0.654	-8.013e-6	-7.690e-6
0.648	-8.210e-6	-7.693e-6
0.642	-8.351e-6	-7.706e-6
0.636	-8.498e-6	-7.702e-6
0.630	-8.597e-6	-7.709e-6
0.624	-8.759e-6	-7.733e-6
0.618	-8.906e-6	-7.741e-6
0.612	-9.091e-6	-7.764e-6
0.606	-9.162e-6	-7.779e-6
0.600	-9.305e-6	-7.777e-6
0.594	-9.444e-6	-7.781e-6
0.588	-9.532e-6	-7.794e-6
0.582	-9.641e-6	-7.783e-6
0.576	-9.776e-6	-7.778e-6
0.570	-9.882e-6	-7.788e-6
0.564	-1.002e-5	-7.793e-6
0.558	-1.010e-5	-7.795e-6
0.552	-1.026e-5	-7.782e-6
0.546	-1.035e-5	-7.792e-6
0.540	-1.050e-5	-7.787e-6
0.534	-1.056e-5	-7.789e-6
0.528	-1.067e-5	-7.781e-6
0.522	-1.077e-5	-7.785e-6
0.516	-1.095e-5	-7.791e-6
0.510	-1.108e-5	-7.782e-6
0.504	-1.118e-5	-7.778e-6
0.498	-1.130e-5	-7.779e-6
0.492	-1.143e-5	-7.780e-6
0.486	-1.148e-5	-7.780e-6
0.480	-1.163e-5	-7.773e-6
0.474	-1.172e-5	-7.777e-6
0.468	-1.186e-5	-7.767e-6
0.462	-1.198e-5	-7.772e-6
0.456	-1.210e-5	-7.776e-6
0.450	-1.221e-5	-7.775e-6
0.444	-1.234e-5	-7.782e-6
0.438	-1.242e-5	-7.775e-6
0.432	-1.252e-5	-7.768e-6
0.426	-1.264e-5	-7.780e-6
0.420	-1.276e-5	-7.770e-6
0.414	-1.285e-5	-7.779e-6
0.408	-1.305e-5	-7.778e-6
0.402	-1.312e-5	-7.780e-6
0.396	-1.321e-5	-7.778e-6
0.390	-1.325e-5	-7.782e-6
0.384	-1.330e-5	-7.784e-6
0.378	-1.336e-5	-7.783e-6
0.372	-1.341e-5	-7.780e-6
0.366	-1.343e-5	-7.777e-6
0.360	-1.347e-5	-7.765e-6
0.354	-1.347e-5	-7.778e-6
0.348	-1.349e-5	-7.770e-6
0.342	-1.348e-5	-7.776e-6
0.336	-1.350e-5	-7.777e-6
0.330	-1.352e-5	-7.775e-6
0.324	-1.360e-5	-7.769e-6
0.318	-1.363e-5	-7.774e-6
0.312	-1.371e-5	-7.771e-6
0.306	-1.381e-5	-7.769e-6
0.300	-1.386e-5	-7.782e-6
0.294	-1.392e-5	-7.787e-6
0.288	-1.403e-5	-7.782e-6
0.282	-1.411e-5	-7.776e-6
0.276	-1.422e-5	-7.781e-6
0.270	-1.427e-5	-7.792e-6
0.264	-1.437e-5	-7.775e-6
0.258	-1.447e-5	-7.776e-6
0.252	-1.458e-5	-7.778e-6
0.246	-1.466e-5	-7.772e-6
0.240	-1.476e-5	-7.774e-6
0.234	-1.487e-5	-7.770e-6
0.228	-1.499e-5	-7.778e-6
0.222	-1.507e-5	-7.769e-6
0.216	-1.519e-5	-7.771e-6
0.210	-1.530e-5	-7.756e-6
0.204	-1.551e-5	-7.780e-6
0.198	-1.558e-5	-7.773e-6
0.192	-1.569e-5	-7.773e-6
0.186	-1.580e-5	-7.770e-6
0.180	-1.596e-5	-7.783e-6
0.174	-1.604e-5	-7.788e-6
0.168	-1.618e-5	-7.772e-6
0.162	-1.631e-5	-7.770e-6
0.156	-1.645e-5	-7.769e-6
0.150	-1.657e-5	-7.775e-6
0.144	-1.671e-5	-7.775e-6
0.138	-1.684e-5	-7.769e-6
0.132	-1.698e-5	-7.770e-6
0.126	-1.706e-5	-7.760e-6
0.120	-1.721e-5	-7.760e-6
0.114	-1.736e-5	-7.769e-6
0.108	-1.750e-5	-7.766e-6
0.102	-1.767e-5	-7.765e-6
0.096	-1.781e-5	-7.767e-6
0.090	-1.797e-5	-7.770e-6
0.084	-1.813e-5	-7.761e-6
0.078	-1.826e-5	-7.765e-6
0.072	-1.837e-5	-7.769e-6
0.066	-1.853e-5	-7.770e-6
0.060	-1.866e-5	-7.760e-6
0.054	-1.876e-5	-7.770e-6
0.048	-1.889e-5	-7.776e-6
0.042	-1.899e-5	-7.771e-6
0.036	-1.914e-5	-7.772e-6
0.030	-1.921e-5	-7.766e-6
0.024	-1.925e-5	-7.777e-6
0.018	-1.932e-5	-7.769e-6
0.012	-1.939e-5	-7.774e-6
0.006	-1.940e-5	-7.769e-6
0.000	-1.959e-5	-7.780e-6
-0.006	-1.953e-5	-7.779e-6
-0.012	-1.955e-5	-7.774e-6
-0.018	-1.951e-5	-7.785e-6
-0.024	-1.950e-5	-7.785e-6
-0.030	-1.947e-5	-7.778e-6
-0.036	-1.943e-5	-7.785e-6
-0.042	-1.933e-5	-7.778e-6
-0.048	-1.922e-5	-7.780e-6
-0.054	-1.911e-5	-7.773e-6
-0.060	-1.903e-5	-7.779e-6
-0.066	-1.890e-5	-7.775e-6
-0.072	-1.877e-5	-7.776e-6
-0.078	-1.861e-5	-7.775e-6
-0.084	-1.849e-5	-7.770e-6
-0.090	-1.830e-5	-7.773e-6
-0.096	-1.811e-5	-7.768e-6
-0.102	-1.793e-5	-7.771e-6
-0.108	-1.775e-5	-7.773e-6
-0.114	-1.755e-5	-7.774e-6
-0.120	-1.737e-5	-7.771e-6
-0.126	-1.719e-5	-7.778e-6
-0.132	-1.701e-5	-7.772e-6
-0.138	-1.683e-5	-7.768e-6
-0.144	-1.668e-5	-7.769e-6
-0.150	-1.652e-5	-7.772e-6
-0.156	-1.639e-5	-7.768e-6
-0.162	-1.622e-5	-7.774e-6
-0.168	-1.611e-5	-7.755e-6
-0.174	-1.602e-5	-7.767e-6
-0.180	-1.596e-5	-7.771e-6
-0.186	-1.591e-5	-7.776e-6
-0.192	-1.590e-5	-7.779e-6
-0.198	-1.589e-5	-7.779e-6
-0.204	-1.597e-5	-7.781e-6
-0.210	-1.606e-5	-7.773e-6
-0.216	-1.618e-5	-7.791e-6
-0.222	-1.632e-5	-7.776e-6
-0.228	-1.650e-5	-7.783e-6
-0.234	-1.669e-5	-7.785e-6
-0.240	-1.695e-5	-7.784e-6
-0.246	-1.728e-5	-7.773e-6
-0.252	-1.763e-5	-7.766e-6
-0.258	-1.801e-5	-7.779e-6
-0.264	-1.846e-5	-7.771e-6
-0.270	-1.899e-5	-7.777e-6
-0.276	-1.957e-5	-7.786e-6
-0.282	-2.015e-5	-7.772e-6
-0.288	-2.083e-5	-7.774e-6
-0.294	-2.156e-5	-7.775e-6
-0.300	-2.242e-5	-7.765e-6
-0.306	-2.323e-5	-7.769e-6
-0.312	-2.416e-5	-7.769e-6
-0.318	-2.512e-5	-7.764e-6
-0.324	-2.620e-5	-7.761e-6
-0.330	-2.734e-5	-7.754e-6
-0.336	-2.855e-5	-7.763e-6
-0.342	-2.987e-5	-7.769e-6
-0.348	-3.127e-5	-7.769e-6
-0.354	-3.269e-5	-7.769e-6
-0.360	-3.420e-5	-7.756e-6
-0.366	-3.578e-5	-7.759e-6
-0.372	-3.742e-5	-7.755e-6
-0.378	-3.909e-5	-7.759e-6
-0.384	-4.084e-5	-7.770e-6
-0.390	-4.267e-5	-7.750e-6
-0.396	-4.457e-5	-7.745e-6
-0.402	-4.645e-5	-7.749e-6
-0.408	-4.839e-5	-7.774e-6
-0.414	-5.036e-5	-7.776e-6
-0.420	-5.236e-5	-7.755e-6
-0.426	-5.432e-5	-7.781e-6
-0.432	-5.626e-5	-7.777e-6
-0.438	-5.822e-5	-7.767e-6
-0.444	-6.021e-5	-7.767e-6
-0.450	-6.211e-5	-7.757e-6
-0.456	-6.399e-5	-7.760e-6
-0.462	-6.581e-5	-7.753e-6
-0.468	-6.768e-5	-7.755e-6
-0.474	-6.938e-5	-7.757e-6
-0.480	-7.109e-5	-7.756e-6
-0.486	-7.272e-5	-7.751e-6
-0.492	-7.428e-5	-7.740e-6
-0.498	-7.575e-5	-7.748e-6
-0.504	-7.714e-5	-7.742e-6
-0.510	-7.846e-5	-7.744e-6
-0.516	-7.970e-5	-7.743e-6
-0.522	-8.080e-5	-7.751e-6
-0.528	-8.184e-5	-7.748e-6
-0.534	-8.278e-5	-7.747e-6
-0.540	-8.366e-5	-7.743e-6
-0.546	-8.444e-5	-7.737e-6
-0.552	-8.514e-5	-7.725e-6
-0.558	-8.573e-5	-7.735e-6
-0.564	-8.628e-5	-7.731e-6
-0.570	-8.670e-5	-7.735e-6
-0.576	-8.705e-5	-7.734e-6
-0.582	-8.734e-5	-7.749e-6
-0.588	-8.760e-5	-7.765e-6
-0.594	-8.777e-5	-7.766e-6
-0.600	-8.522e-5	-7.735e-6
-0.594	-7.194e-5	-7.733e-6
-0.588	-6.465e-5	-7.739e-6
-0.582	-5.894e-5	-7.748e-6
-0.576	-5.410e-5	-7.753e-6
-0.570	-4.983e-5	-7.759e-6
-0.564	-4.609e-5	-7.723e-6
-0.558	-4.264e-5	-7.728e-6
-0.552	-3.955e-5	-7.744e-6
-0.546	-3.663e-5	-7.734e-6
-0.540	-3.393e-5	-7.751e-6
-0.534	-3.141e-5	-7.756e-6
-0.528	-2.907e-5	-7.755e-6
-0.522	-2.684e-5	-7.742e-6
-0.516	-2.472e-5	-7.750e-6
-0.510	-2.277e-5	-7.753e-6
-0.504	-2.088e-5	-7.752e-6
-0.498	-1.908e-5	-7.755e-6
-0.492	-1.730e-5	-7.750e-6
-0.486	-1.564e-5	-7.754e-6
-0.480	-1.408e-5	-7.765e-6
-0.474	-1.253e-5	-7.765e-6
-0.468	-1.105e-5	-7.772e-6
-0.462	-9.634e-6	-7.769e-6
-0.456	-8.315e-6	-7.680e-6
-0.450	-7.088e-6	-7.687e-6
-0.444	-5.827e-6	-7.680e-6
-0.438	-4.596e-6	-7.698e-6
-0.432	-3.433e-6	-7.681e-6
-0.426	-2.285e-6	-7.682e-6
-0.420	-1.182e-6	-7.690e-6
-0.414	-1.317e-7	-7.672e-6
-0.408	9.213e-7	-7.690e-6
-0.402	1.877e-6	-7.688e-6
-0.396	2.834e-6	-7.679e-6
-0.390	3.711e-6	-7.695e-6
-0.384	4.565e-6	-7.694e-6
-0.378	5.443e-6	-7.698e-6
-0.372	6.307e-6	-7.685e-6
-0.366	7.050e-6	-7.688e-6
-0.360	7.742e-6	-7.691e-6
-0.354	8.423e-6	-7.695e-6
-0.348	9.092e-6	-7.700e-6
-0.342	9.778e-6	-7.704e-6
-0.336	1.032e-5	-7.698e-6
-0.330	1.090e-5	-7.700e-6
-0.324	1.150e-5	-7.682e-6
-0.318	1.213e-5	-7.689e-6
-0.312	1.267e-5	-7.684e-6
-0.306	1.315e-5	-7.685e-6
-0.300	1.367e-5	-7.698e-6
-0.294	1.409e-5	-7.679e-6
-0.288	1.446e-5	-7.689e-6
-0.282	1.489e-5	-7.691e-6
-0.276	1.530e-5	-7.695e-6
-0.270	1.568e-5	-7.688e-6
-0.264	1.604e-5	-7.695e-6
-0.258	1.642e-5	-7.695e-6
-0.252	1.680e-5	-7.685e-6
-0.246	1.708e-5	-7.702e-6
-0.240	1.732e-5	-7.704e-6
-0.234	1.755e-5	-7.695e-6
-0.228	1.788e-5	-7.709e-6
-0.222	1.823e-5	-7.703e-6
-0.216	1.848e-5	-7.709e-6
-0.210	1.869e-5	-7.704e-6
-0.204	1.894e-5	-7.697e-6
-0.198	1.916e-5	-7.704e-6
-0.192	1.930e-5	-7.692e-6
-0.186	1.945e-5	-7.711e-6
-0.180	1.963e-5	-7.711e-6
-0.174	1.972e-5	-7.713e-6
-0.168	1.979e-5	-7.700e-6
-0.162	1.993e-5	-7.712e-6
-0.156	2.013e-5	-7.712e-6
-0.150	2.026e-5	-7.713e-6
-0.144	2.044e-5	-7.705e-6
-0.138	2.060e-5	-7.707e-6
-0.132	2.073e-5	-7.697e-6
-0.126	2.086e-5	-7.702e-6
-0.120	2.101e-5	-7.699e-6
-0.114	2.116e-5	-7.693e-6
-0.108	2.135e-5	-7.694e-6
-0.102	2.152e-5	-7.688e-6
-0.096	2.168e-5	-7.692e-6
-0.090	2.187e-5	-7.688e-6
-0.084	2.201e-5	-7.698e-6
-0.078	2.218e-5	-7.692e-6
-0.072	2.239e-5	-7.703e-6
-0.066	2.262e-5	-7.694e-6
-0.060	2.293e-5	-7.700e-6
-0.054	2.321e-5	-7.701e-6
-0.048	2.350e-5	-7.702e-6
-0.042	2.379e-5	-7.698e-6
-0.036	2.412e-5	-7.696e-6
-0.030	2.444e-5	-7.706e-6
-0.024	2.473e-5	-7.700e-6
-0.018	2.505e-5	-7.708e-6
-0.012	2.539e-5	-7.697e-6
-0.006	2.576e-5	-7.700e-6
-0.000	2.626e-5	-7.686e-6
0.006	2.660e-5	-7.697e-6
0.012	2.704e-5	-7.697e-6
0.018	2.756e-5	-7.700e-6
0.024	2.811e-5	-7.709e-6
0.030	2.862e-5	-7.712e-6
0.036	2.922e-5	-7.707e-6
0.042	2.979e-5	-7.711e-6
0.048	3.043e-5	-7.713e-6
0.054	3.109e-5	-7.682e-6
0.060	3.182e-5	-7.678e-6
0.066	3.248e-5	-7.685e-6
0.072	3.306e-5	-7.681e-6
0.078	3.368e-5	-7.694e-6
0.084	3.438e-5	-7.683e-6
0.090	3.505e-5	-7.691e-6
0.096	3.563e-5	-7.696e-6
0.102	3.629e-5	-7.694e-6
0.108	3.696e-5	-7.698e-6
0.114	3.756e-5	-7.693e-6
0.120	3.812e-5	-7.706e-6
0.126	3.871e-5	-7.709e-6
0.132	3.923e-5	-7.700e-6
0.138	3.980e-5	-7.701e-6
0.144	4.027e-5	-7.701e-6
0.150	4.066e-5	-7.693e-6
0.156	4.094e-5	-7.689e-6
0.162	4.095e-5	-7.689e-6
0.168	4.082e-5	-7.687e-6
0.174	4.062e-5	-7.683e-6
0.180	4.014e-5	-7.700e-6
0.186	3.947e-5	-7.696e-6
0.192	3.859e-5	-7.697e-6
0.198	3.768e-5	-7.696e-6
0.204	3.681e-5	-7.686e-6
0.210	3.586e-5	-7.679e-6
0.216	3.500e-5	-7.681e-6
0.222	3.436e-5	-7.685e-6
0.228	3.380e-5	-7.688e-6
0.234	3.325e-5	-7.688e-6
0.240	3.288e-5	-7.687e-6
0.246	3.260e-5	-7.687e-6
0.252	3.239e-5	-7.682e-6
0.258	3.218e-5	-7.686e-6
0.264	3.197e-5	-7.681e-6
0.270	3.189e-5	-7.690e-6
0.276	3.188e-5	-7.679e-6
0.282	3.173e-5	-7.683e-6
0.288	3.161e-5	-7.692e-6
0.294	3.158e-5	-7.684e-6
0.300	3.157e-5	-7.673e-6
0.306	3.152e-5	-7.690e-6
0.312	3.146e-5	-7.669e-6
0.318	3.139e-5	-7.673e-6
0.324	3.133e-5	-7.672e-6
0.330	3.120e-5	-7.682e-6
0.336	3.108e-5	-7.676e-6
0.342	3.090e-5	-7.693e-6
0.348	3.082e-5	-7.687e-6
0.354	3.066e-5	-7.691e-6
0.360	3.048e-5	-7.696e-6
0.366	3.026e-5	-7.701e-6
0.372	3.006e-5	-7.714e-6
0.378	2.981e-5	-7.711e-6
0.384	2.967e-5	-7.715e-6
0.390	2.955e-5	-7.713e-6
0.396	2.937e-5	-7.713e-6
0.402	2.918e-5	-7.720e-6
0.408	2.902e-5	-7.713e-6
0.414	2.897e-5	-7.713e-6
0.420	2.884e-5	-7.708e-6
0.426	2.873e-5	-7.712e-6
0.432	2.862e-5	-7.706e-6
0.438	2.856e-5	-7.705e-6
0.444	2.851e-5	-7.698e-6
0.450	2.845e-5	-7.710e-6
0.456	2.835e-5	-7.713e-6
0.462	2.838e-5	-7.707e-6
0.468	2.844e-5	-7.710e-6
0.474	2.843e-5	-7.710e-6
0.480	2.836e-5	-7.711e-6
0.486	2.835e-5	-7.719e-6
0.492	2.841e-5	-7.713e-6
0.498	2.844e-5	-7.714e-6
0.504	2.849e-5	-7.709e-6
0.510	2.861e-5	-7.716e-6
0.516	2.875e-5	-7.707e-6
0.522	2.884e-5	-7.698e-6
0.528	2.897e-5	-7.707e-6
0.534	2.909e-5	-7.706e-6
0.540	2.926e-5	-7.706e-6
0.546	2.944e-5	-7.713e-6
0.552	2.965e-5	-7.721e-6
0.558	2.992e-5	-7.715e-6
0.564	3.018e-5	-7.722e-6
0.570	3.033e-5	-7.703e-6
0.576	3.060e-5	-7.701e-6
0.582	3.092e-5	-7.681e-6
0.588	3.126e-5	-7.686e-6
0.594	3.163e-5	-7.683e-6
0.600	3.201e-5	-7.677e-6
0.606	3.245e-5	-7.688e-6
0.612	3.289e-5	-7.673e-6
0.618	3.341e-5	-7.677e-6
0.624	3.390e-5	-7.681e-6
0.630	3.449e-5	-7.681e-6
0.636	3.503e-5	-7.681e-6
0.642	3.558e-5	-7.688e-6
0.648	3.609e-5	-7.681e-6
0.654	3.670e-5	-7.688e-6
0.660	3.734e-5	-7.683e-6
0.666	3.788e-5	-7.692e-6
0.672	3.845e-5	-7.689e-6
0.678	3.904e-5	-7.699e-6
0.684	3.966e-5	-7.701e-6
0.690	4.021e-5	-7.702e-6
0.696	4.074e-5	-7.688e-6
0.702	4.130e-5	-7.689e-6
0.708	4.186e-5	-7.687e-6
0.714	4.237e-5	-7.700e-6
0.720	4.290e-5	-7.693e-6
0.726	4.346e-5	-7.697e-6
0.732	4.404e-5	-7.702e-6
0.738	4.453e-5	-7.701e-6
0.744	4.495e-5	-7.709e-6
0.750	4.543e-5	-7.702e-6
0.756	4.603e-5	-7.705e-6
0.762	4.654e-5	-7.701e-6
0.768	4.714e-5	-7.707e-6
0.774	4.779e-5	-7.708e-6
0.780	4.841e-5	-7.713e-6
0.786	4.898e-5	-7.713e-6
0.792	4.959e-5	-7.710e-6
0.798	5.022e-5	-7.709e-6
0.804	5.091e-5	-7.701e-6
0.810	5.157e-5	-7.702e-6
0.816	5.229e-5	-7.699e-6
0.822	5.314e-5	-7.690e-6
0.828	5.381e-5	-7.701e-6
0.834	5.458e-5	-7.723e-6
0.840	5.540e-5	-7.699e-6
0.846	5.629e-5	-7.705e-6
0.852	5.722e-5	-7.705e-6
0.858	5.827e-5	-7.711e-6
0.864	5.929e-5	-7.711e-6
0.870	6.049e-5	-7.705e-6
0.876	6.184e-5	-7.710e-6
0.882	6.322e-5	-7.710e-6
0.888	6.475e-5	-7.732e-6
0.894	6.635e-5	-7.714e-6
0.900	6.363e-5	-7.741e-6
0.894	3.616e-5	-7.703e-6
0.888	2.932e-5	-7.731e-6
0.882	2.451e-5	-7.721e-6
0.876	2.068e-5	-7.718e-6
0.870	1.760e-5	-7.715e-6
0.864	1.506e-5	-7.713e-6
0.858	1.292e-5	-7.713e-6
0.852	1.097e-5	-7.707e-6
0.846	9.304e-6	-7.719e-6
0.840	7.816e-6	-7.715e-6
0.834	6.468e-6	-7.699e-6
0.828	5.252e-6	-7.712e-6
0.822	4.223e-6	-7.703e-6
0.816	3.131e-6	-7.714e-6
0.810	2.224e-6	-7.713e-6
0.804	1.404e-6	-7.704e-6
0.798	6.822e-7	-7.709e-6
0.792	-4.114e-8	-7.713e-6
0.786	-7.084e-7	-7.709e-6
0.780	-1.359e-6	-7.706e-6
0.774	-1.925e-6	-7.705e-6
0.768	-2.468e-6	-7.697e-6
0.762	-2.975e-6	-7.706e-6
0.756	-3.461e-6	-7.704e-6
0.750	-3.874e-6	-7.708e-6
0.744	-4.251e-6	-7.702e-6
0.738	-4.633e-6	-7.713e-6
0.732	-4.995e-6	-7.705e-6
0.726	-5.284e-6	-7.692e-6
0.720	-5.593e-6	-7.694e-6
0.714	-5.877e-6	-7.700e-6
0.708	-6.191e-6	-7.694e-6
0.702	-6.400e-6	-7.693e-6
0.696	-6.629e-6	-7.691e-6
0.690	-6.848e-6	-7.686e-6
0.684	-7.046e-6	-7.691e-6
0.678	-7.181e-6	-7.692e-6
0.672	-7.388e-6	-7.685e-6
0.666	-7.562e-6	-7.689e-6
0.660	-7.756e-6	-7.695e-6
0.654	-7.938e-6	-7.684e-6
0.648	-8.093e-6	-7.684e-6
0.642	-8.266e-6	-7.691e-6
0.636	-8.401e-6	-7.701e-6
0.630	-8.484e-6	-7.706e-6
0.624	-8.597e-6	-7.711e-6
0.618	-8.757e-6	-7.726e-6
0.612	-8.943e-6	-7.765e-6
0.606	-9.026e-6	-7.756e-6
0.600	-9.198e-6	-7.768e-6
0.594	-9.309e-6	-7.779e-6
0.588	-9.440e-6	-7.783e-6
0.582	-9.532e-6	-7.787e-6
0.576	-9.676e-6	-7.782e-6
0.570	-9.799e-6	-7.788e-6
0.564	-9.928e-6	-7.791e-6
0.558	-1.003e-5	-7.788e-6
0.552	-1.015e-5	-7.797e-6
0.546	-1.027e-5	-7.777e-6
0.540	-1.038e-5	-7.788e-6
0.534	-1.047e-5	-7.786e-6
0.528	-1.057e-5	-7.779e-6
0.522	-1.074e-5	-7.792e-6
0.516	-1.087e-5	-7.775e-6
0.510	-1.097e-5	-7.784e-6
0.504	-1.109e-5	-7.790e-6
0.498	-1.120e-5	-7.791e-6
0.492	-1.134e-5	-7.782e-6
0.486	-1.140e-5	-7.787e-6
0.480	-1.152e-5	-7.779e-6
0.474	-1.164e-5	-7.787e-6
0.468	-1.179e-5	-7.789e-6
0.462	-1.189e-5	-7.788e-6
0.456	-1.201e-5	-7.781e-6
0.450	-1.212e-5	-7.768e-6
0.444	-1.224e-5	-7.776e-6
0.438	-1.233e-5	-7.780e-6
0.432	-1.244e-5	-7.779e-6
0.426	-1.257e-5	-7.768e-6
0.420	-1.272e-5	-7.782e-6
0.414	-1.281e-5	-7.770e-6
0.408	-1.301e-5	-7.770e-6
0.402	-1.309e-5	-7.776e-6
0.396	-1.320e-5	-7.781e-6
0.390	-1.324e-5	-7.775e-6
0.384	-1.332e-5	-7.770e-6
0.378	-1.339e-5	-7.771e-6
0.372	-1.347e-5	-7.776e-6
0.366	-1.346e-5	-7.773e-6
0.360	-1.349e-5	-7.778e-6
0.354	-1.351e-5	-7.771e-6
0.348	-1.353e-5	-7.777e-6
0.342	-1.352e-5	-7.770e-6
0.336	-1.354e-5	-7.776e-6
0.330	-1.356e-5	-7.771e-6
0.324	-1.361e-5	-7.777e-6
0.318	-1.363e-5	-7.774e-6
0.312	-1.370e-5	-7.780e-6
0.306	-1.379e-5	-7.776e-6
0.300	-1.386e-5	-7.772e-6
0.294	-1.392e-5	-7.779e-6
0.288	-1.400e-5	-7.783e-6
0.282	-1.406e-5	-7.781e-6
0.276	-1.416e-5	-7.774e-6
0.270	-1.424e-5	-7.795e-6
0.264	-1.433e-5	-7.778e-6
0.258	-1.441e-5	-7.785e-6
0.252	-1.453e-5	-7.766e-6
0.246	-1.461e-5	-7.769e-6
0.240	-1.469e-5	-7.777e-6
0.234	-1.482e-5	-7.780e-6
0.228	-1.492e-5	-7.777e-6
0.222	-1.502e-5	-7.775e-6
0.216	-1.513e-5	-7.772e-6
0.210	-1.526e-5	-7.773e-6
0.204	-1.547e-5	-7.777e-6
0.198	-1.551e-5	-7.780e-6
0.192	-1.563e-5	-7.768e-6
0.186	-1.576e-5	-7.780e-6
0.180	-1.593e-5	-7.784e-6
0.174	-1.600e-5	-7.782e-6
0.168	-1.613e-5	-7.777e-6
0.162	-1.627e-5	-7.781e-6
0.156	-1.642e-5	-7.781e-6
0.150	-1.652e-5	-7.776e-6
0.144	-1.666e-5	-7.767e-6
0.138	-1.679e-5	-7.772e-6
0.132	-1.694e-5	-7.778e-6
0.126	-1.703e-5	-7.765e-6
0.120	-1.717e-5	-7.773e-6
0.114	-1.732e-5	-7.771e-6
0.108	-1.747e-5	-7.776e-6
0.102	-1.764e-5	-7.767e-6
0.096	-1.776e-5	-7.770e-6
0.090	-1.790e-5	-7.771e-6
0.084	-1.806e-5	-7.767e-6
0.078	-1.816e-5	-7.773e-6
0.072	-1.827e-5	-7.762e-6
0.066	-1.843e-5	-7.765e-6
0.060	-1.857e-5	-7.774e-6
0.054	-1.868e-5	-7.771e-6
0.048	-1.880e-5	-7.774e-6
0.042	-1.890e-5	-7.776e-6
0.036	-1.901e-5	-7.770e-6
0.030	-1.910e-5	-7.781e-6
0.024	-1.914e-5	-7.775e-6
0.018	-1.921e-5	-7.770e-6
0.012	-1.929e-5	-7.768e-6
0.006	-1.931e-5	-7.772e-6
0.000	-1.951e-5	-7.777e-6
-0.006	-1.944e-5	-7.780e-6
-0.012	-1.948e-5	-7.778e-6
-0.018	-1.946e-5	-7.778e-6
-0.024	-1.943e-5	-7.783e-6
-0.030	-1.942e-5	-7.788e-6
-0.036	-1.937e-5	-7.778e-6
-0.042	-1.928e-5	-7.781e-6
-0.048	-1.919e-5	-7.784e-6
-0.054	-1.910e-5	-7.786e-6
-0.060	-1.900e-5	-7.786e-6
-0.066	-1.886e-5	-7.784e-6
-0.072	-1.875e-5	-7.775e-6
-0.078	-1.860e-5	-7.771e-6
-0.084	-1.847e-5	-7.769e-6
-0.090	-1.827e-5	-7.768e-6
-0.096	-1.809e-5	-7.768e-6
-0.102	-1.793e-5	-7.768e-6
-0.108	-1.776e-5	-7.770e-6
-0.114	-1.755e-5	-7.774e-6
-0.120	-1.736e-5	-7.775e-6
-0.126	-1.717e-5	-7.776e-6
-0.132	-1.700e-5	-7.781e-6
-0.138	-1.682e-5	-7.774e-6
-0.144	-1.666e-5	-7.778e-6
-0.150	-1.649e-5	-7.784e-6
-0.156	-1.637e-5	-7.773e-6
-0.162	-1.621e-5	-7.783e-6
-0.168	-1.611e-5	-7.779e-6
-0.174	-1.602e-5	-7.780e-6
-0.180	-1.595e-5	-7.778e-6
-0.186	-1.589e-5	-7.774e-6
-0.192	-1.588e-5	-7.770e-6
-0.198	-1.589e-5	-7.768e-6
-0.204	-1.596e-5	-7.776e-6
-0.210	-1.603e-5	-7.783e-6
-0.216	-1.614e-5	-7.777e-6
-0.222	-1.629e-5	-7.765e-6
-0.228	-1.650e-5	-7.782e-6
-0.234	-1.671e-5	-7.776e-6
-0.240	-1.696e-5	-7.771e-6
-0.246	-1.726e-5	-7.769e-6
-0.252	-1.763e-5	-7.772e-6
-0.258	-1.801e-5	-7.764e-6
-0.264	-1.845e-5	-7.775e-6
-0.270	-1.897e-5	-7.777e-6
-0.276	-1.955e-5	-7.782e-6
-0.282	-2.012e-5	-7.769e-6
-0.288	-2.076e-5	-7.767e-6
-0.294	-2.149e-5	-7.763e-6
-0.300	-2.232e-5	-7.768e-6
-0.306	-2.315e-5	-7.766e-6
-0.312	-2.406e-5	-7.771e-6
-0.318	-2.504e-5	-7.761e-6
-0.324	-2.611e-5	-7.763e-6
-0.330	-2.723e-5	-7.759e-6
-0.336	-2.843e-5	-7.766e-6
-0.342	-2.972e-5	-7.776e-6
-0.348	-3.109e-5	-7.771e-6
-0.354	-3.251e-5	-7.760e-6
-0.360	-3.397e-5	-7.760e-6
-0.366	-3.554e-5	-7.755e-6
-0.372	-3.716e-5	-7.756e-6
-0.378	-3.879e-5	-7.759e-6
-0.384	-4.049e-5	-7.760e-6
-0.390	-4.230e-5	-7.757e-6
-0.396	-4.418e-5	-7.754e-6
-0.402	-4.605e-5	-7.745e-6
-0.408	-4.793e-5	-7.756e-6
-0.414	-4.985e-5	-7.792e-6
-0.420	-5.181e-5	-7.777e-6
-0.426	-5.373e-5	-7.778e-6
-0.432	-5.565e-5	-7.775e-6
-0.438	-5.761e-5	-7.764e-6
-0.444	-5.955e-5	-7.772e-6
-0.450	-6.142e-5	-7.768e-6
-0.456	-6.327e-5	-7.767e-6
-0.462	-6.506e-5	-7.758e-6
-0.468	-6.686e-5	-7.747e-6
-0.474	-6.856e-5	-7.744e-6
-0.480	-7.022e-5	-7.760e-6
-0.486	-7.179e-5	-7.758e-6
-0.492	-7.337e-5	-7.760e-6
-0.498	-7.477e-5	-7.757e-6
-0.504	-7.616e-5	-7.744e-6
-0.510	-7.742e-5	-7.750e-6
-0.516	-7.867e-5	-7.755e-6
-0.522	-7.976e-5	-7.750e-6
-0.528	-8.076e-5	-7.742e-6
-0.534	-8.170e-5	-7.740e-6
-0.540	-8.256e-5	-7.739e-6
-0.546	-8.328e-5	-7.739e-6
-0.552	-8.395e-5	-7.746e-6
-0.558	-8.455e-5	-7.753e-6
-0.564	-8.510e-5	-7.741e-6
-0.570	-8.553e-5	-7.736e-6
-0.576	-8.590e-5	-7.736e-6
-0.582	-8.620e-5	-7.742e-6
-0.588	-8.647e-5	-7.743e-6
-0.594	-8.664e-5	-7.745e-6
-0.599	-8.676e-5	-7.745e-6