File: data/cv/0620/750 rpm cv.txt
June 20, 2016   16:54:22
Cyclic Voltammetry
File: c:\users\potentio2\desktop\suda\20160620\750 rpm cv.txt
Data Source:  Experiment
Instrument Model:  CHI7082E
Header:
Note:

Init E (V) = 0
High E (V) = 0.9
Low E (V) = -0.6
Init P/N = P
Scan Rate (V/s) = 0.01
Segment = 6
Sample Interval (V) = 0.001
Quiet Time (sec) = 2
Sensitivity (A/V) = 0.001
Sens 2 (A/V) = 1e-6

Segment 1:

Segment 2:

Segment 3:
Ep = 0.151V
ip = 1.112e-5A
Ah = 1.080e-4C

Segment 4:

Segment 5:
Ep = 0.153V
ip = 1.094e-5A
Ah = 1.109e-4C

Segment 6:

Current 2:

Segment 1:

Segment 2:

Segment 3:
Segment 4:
Ep = -0.245V
ip = -1.708e-11A
Ah = -1.633e-11C

Segment 5:
Segment 6:

Potential/V	i1/A	i2/A

0.000	-3.491e-5	-7.631e-9
0.006	-1.127e-5	-7.647e-9
0.012	-8.166e-7	-7.559e-9
0.018	5.668e-6	-7.567e-9
0.024	1.014e-5	-7.572e-9
0.030	1.344e-5	-7.552e-9
0.036	1.590e-5	-7.565e-9
0.042	1.787e-5	-7.568e-9
0.048	1.940e-5	-7.578e-9
0.054	2.070e-5	-7.576e-9
0.060	2.173e-5	-7.574e-9
0.066	2.258e-5	-7.583e-9
0.072	2.322e-5	-7.584e-9
0.078	2.381e-5	-7.589e-9
0.084	2.433e-5	-7.589e-9
0.090	2.473e-5	-7.596e-9
0.096	2.506e-5	-7.596e-9
0.102	2.540e-5	-7.600e-9
0.108	2.567e-5	-7.595e-9
0.114	2.583e-5	-7.597e-9
0.120	2.597e-5	-7.593e-9
0.126	2.618e-5	-7.594e-9
0.132	2.634e-5	-7.601e-9
0.138	2.648e-5	-7.610e-9
0.144	2.651e-5	-7.616e-9
0.150	2.660e-5	-7.619e-9
0.156	2.672e-5	-7.612e-9
0.162	2.679e-5	-7.609e-9
0.168	2.683e-5	-7.618e-9
0.174	2.690e-5	-7.618e-9
0.180	2.694e-5	-7.624e-9
0.186	2.698e-5	-7.620e-9
0.192	2.702e-5	-7.628e-9
0.198	2.705e-5	-7.618e-9
0.204	2.712e-5	-7.619e-9
0.210	2.720e-5	-7.622e-9
0.216	2.717e-5	-7.619e-9
0.222	2.722e-5	-7.617e-9
0.228	2.729e-5	-7.625e-9
0.234	2.726e-5	-7.627e-9
0.240	2.728e-5	-7.631e-9
0.246	2.736e-5	-7.625e-9
0.252	2.743e-5	-7.632e-9
0.258	2.745e-5	-7.632e-9
0.264	2.743e-5	-7.629e-9
0.270	2.748e-5	-7.634e-9
0.276	2.753e-5	-7.629e-9
0.282	2.751e-5	-7.634e-9
0.288	2.749e-5	-7.638e-9
0.294	2.753e-5	-7.635e-9
0.300	2.758e-5	-7.632e-9
0.306	2.756e-5	-7.645e-9
0.312	2.755e-5	-7.629e-9
0.318	2.757e-5	-7.632e-9
0.324	2.759e-5	-7.632e-9
0.330	2.758e-5	-7.632e-9
0.336	2.754e-5	-7.633e-9
0.342	2.759e-5	-7.647e-9
0.348	2.767e-5	-7.637e-9
0.354	2.768e-5	-7.636e-9
0.360	2.761e-5	-7.643e-9
0.366	2.760e-5	-7.636e-9
0.372	2.761e-5	-7.635e-9
0.378	2.758e-5	-7.641e-9
0.384	2.755e-5	-7.642e-9
0.390	2.759e-5	-7.639e-9
0.396	2.763e-5	-7.643e-9
0.402	2.763e-5	-7.650e-9
0.408	2.762e-5	-7.645e-9
0.414	2.774e-5	-7.650e-9
0.420	2.778e-5	-7.642e-9
0.426	2.778e-5	-7.647e-9
0.432	2.771e-5	-7.649e-9
0.438	2.779e-5	-7.647e-9
0.444	2.787e-5	-7.647e-9
0.450	2.788e-5	-7.654e-9
0.456	2.793e-5	-7.654e-9
0.462	2.805e-5	-7.652e-9
0.468	2.808e-5	-7.652e-9
0.474	2.810e-5	-7.655e-9
0.480	2.813e-5	-7.641e-9
0.486	2.820e-5	-7.658e-9
0.492	2.831e-5	-7.656e-9
0.498	2.839e-5	-7.649e-9
0.504	2.846e-5	-7.661e-9
0.510	2.856e-5	-7.652e-9
0.516	2.871e-5	-7.663e-9
0.522	2.878e-5	-7.652e-9
0.528	2.889e-5	-7.654e-9
0.534	2.906e-5	-7.661e-9
0.540	2.928e-5	-7.666e-9
0.546	2.938e-5	-7.663e-9
0.552	2.949e-5	-7.663e-9
0.558	2.971e-5	-7.666e-9
0.564	2.995e-5	-7.680e-9
0.570	3.014e-5	-7.675e-9
0.576	3.033e-5	-7.677e-9
0.582	3.065e-5	-7.656e-9
0.588	3.098e-5	-7.644e-9
0.594	3.124e-5	-7.645e-9
0.600	3.155e-5	-7.642e-9
0.606	3.194e-5	-7.642e-9
0.612	3.234e-5	-7.649e-9
0.618	3.274e-5	-7.634e-9
0.624	3.315e-5	-7.643e-9
0.630	3.357e-5	-7.638e-9
0.636	3.406e-5	-7.641e-9
0.642	3.454e-5	-7.642e-9
0.648	3.501e-5	-7.648e-9
0.654	3.555e-5	-7.650e-9
0.660	3.618e-5	-7.646e-9
0.666	3.675e-5	-7.640e-9
0.672	3.737e-5	-7.650e-9
0.678	3.805e-5	-7.653e-9
0.684	3.878e-5	-7.655e-9
0.690	3.942e-5	-7.656e-9
0.696	4.009e-5	-7.656e-9
0.702	4.091e-5	-7.659e-9
0.708	4.174e-5	-7.668e-9
0.714	4.244e-5	-7.652e-9
0.720	4.327e-5	-7.662e-9
0.726	4.414e-5	-7.663e-9
0.732	4.513e-5	-7.667e-9
0.738	4.627e-5	-7.658e-9
0.744	4.731e-5	-7.669e-9
0.750	4.800e-5	-7.668e-9
0.756	4.914e-5	-7.680e-9
0.762	5.017e-5	-7.668e-9
0.768	5.130e-5	-7.658e-9
0.774	5.251e-5	-7.660e-9
0.780	5.382e-5	-7.662e-9
0.786	5.511e-5	-7.677e-9
0.792	5.648e-5	-7.675e-9
0.798	5.808e-5	-7.675e-9
0.804	5.967e-5	-7.682e-9
0.810	6.129e-5	-7.679e-9
0.816	6.302e-5	-7.677e-9
0.822	6.496e-5	-7.680e-9
0.828	6.685e-5	-7.672e-9
0.834	6.884e-5	-7.688e-9
0.840	7.089e-5	-7.633e-9
0.846	7.309e-5	-7.648e-9
0.852	7.543e-5	-7.651e-9
0.858	7.770e-5	-7.659e-9
0.864	8.011e-5	-7.663e-9
0.870	8.266e-5	-7.672e-9
0.876	8.531e-5	-7.665e-9
0.882	8.795e-5	-7.681e-9
0.888	9.062e-5	-7.654e-9
0.894	9.336e-5	-7.665e-9
0.900	8.981e-5	-7.696e-9
0.894	5.130e-5	-7.680e-9
0.888	3.954e-5	-7.685e-9
0.882	3.153e-5	-7.663e-9
0.876	2.547e-5	-7.691e-9
0.870	2.073e-5	-7.688e-9
0.864	1.679e-5	-7.681e-9
0.858	1.354e-5	-7.680e-9
0.852	1.070e-5	-7.696e-9
0.846	8.352e-6	-7.692e-9
0.840	6.281e-6	-7.680e-9
0.834	4.367e-6	-7.690e-9
0.828	2.662e-6	-7.693e-9
0.822	1.312e-6	-7.681e-9
0.816	-1.110e-7	-7.688e-9
0.810	-1.224e-6	-7.686e-9
0.804	-2.243e-6	-7.684e-9
0.798	-3.156e-6	-7.679e-9
0.792	-4.082e-6	-7.676e-9
0.786	-4.919e-6	-7.674e-9
0.780	-5.741e-6	-7.672e-9
0.774	-6.351e-6	-7.671e-9
0.768	-7.024e-6	-7.664e-9
0.762	-7.562e-6	-7.671e-9
0.756	-8.088e-6	-7.681e-9
0.750	-8.501e-6	-7.689e-9
0.744	-8.976e-6	-7.741e-9
0.738	-9.352e-6	-7.764e-9
0.732	-9.786e-6	-7.778e-9
0.726	-1.007e-5	-7.777e-9
0.720	-1.037e-5	-7.772e-9
0.714	-1.068e-5	-7.770e-9
0.708	-1.099e-5	-7.764e-9
0.702	-1.122e-5	-7.767e-9
0.696	-1.148e-5	-7.769e-9
0.690	-1.170e-5	-7.762e-9
0.684	-1.195e-5	-7.763e-9
0.678	-1.213e-5	-7.752e-9
0.672	-1.233e-5	-7.755e-9
0.666	-1.254e-5	-7.756e-9
0.660	-1.275e-5	-7.757e-9
0.654	-1.287e-5	-7.768e-9
0.648	-1.303e-5	-7.766e-9
0.642	-1.318e-5	-7.762e-9
0.636	-1.333e-5	-7.759e-9
0.630	-1.344e-5	-7.763e-9
0.624	-1.360e-5	-7.761e-9
0.618	-1.375e-5	-7.764e-9
0.612	-1.396e-5	-7.758e-9
0.606	-1.402e-5	-7.752e-9
0.600	-1.416e-5	-7.764e-9
0.594	-1.431e-5	-7.766e-9
0.588	-1.445e-5	-7.762e-9
0.582	-1.451e-5	-7.767e-9
0.576	-1.467e-5	-7.761e-9
0.570	-1.480e-5	-7.763e-9
0.564	-1.494e-5	-7.763e-9
0.558	-1.500e-5	-7.766e-9
0.552	-1.512e-5	-7.761e-9
0.546	-1.525e-5	-7.775e-9
0.540	-1.542e-5	-7.766e-9
0.534	-1.544e-5	-7.764e-9
0.528	-1.558e-5	-7.779e-9
0.522	-1.570e-5	-7.761e-9
0.516	-1.585e-5	-7.766e-9
0.510	-1.593e-5	-7.763e-9
0.504	-1.603e-5	-7.769e-9
0.498	-1.614e-5	-7.763e-9
0.492	-1.627e-5	-7.763e-9
0.486	-1.630e-5	-7.769e-9
0.480	-1.643e-5	-7.761e-9
0.474	-1.655e-5	-7.759e-9
0.468	-1.667e-5	-7.766e-9
0.462	-1.673e-5	-7.757e-9
0.456	-1.681e-5	-7.754e-9
0.450	-1.691e-5	-7.762e-9
0.444	-1.704e-5	-7.742e-9
0.438	-1.710e-5	-7.757e-9
0.432	-1.716e-5	-7.742e-9
0.426	-1.727e-5	-7.756e-9
0.420	-1.741e-5	-7.758e-9
0.414	-1.745e-5	-7.767e-9
0.408	-1.765e-5	-7.760e-9
0.402	-1.768e-5	-7.753e-9
0.396	-1.780e-5	-7.748e-9
0.390	-1.781e-5	-7.757e-9
0.384	-1.789e-5	-7.748e-9
0.378	-1.796e-5	-7.752e-9
0.372	-1.807e-5	-7.757e-9
0.366	-1.809e-5	-7.753e-9
0.360	-1.816e-5	-7.765e-9
0.354	-1.824e-5	-7.756e-9
0.348	-1.834e-5	-7.756e-9
0.342	-1.837e-5	-7.753e-9
0.336	-1.847e-5	-7.754e-9
0.330	-1.857e-5	-7.751e-9
0.324	-1.872e-5	-7.759e-9
0.318	-1.881e-5	-7.759e-9
0.312	-1.892e-5	-7.759e-9
0.306	-1.910e-5	-7.769e-9
0.300	-1.921e-5	-7.762e-9
0.294	-1.929e-5	-7.763e-9
0.288	-1.943e-5	-7.763e-9
0.282	-1.956e-5	-7.768e-9
0.276	-1.974e-5	-7.761e-9
0.270	-1.986e-5	-7.761e-9
0.264	-2.001e-5	-7.768e-9
0.258	-2.017e-5	-7.765e-9
0.252	-2.036e-5	-7.770e-9
0.246	-2.047e-5	-7.757e-9
0.240	-2.063e-5	-7.756e-9
0.234	-2.077e-5	-7.766e-9
0.228	-2.095e-5	-7.753e-9
0.222	-2.104e-5	-7.751e-9
0.216	-2.119e-5	-7.764e-9
0.210	-2.138e-5	-7.768e-9
0.204	-2.165e-5	-7.756e-9
0.198	-2.168e-5	-7.760e-9
0.192	-2.186e-5	-7.764e-9
0.186	-2.201e-5	-7.761e-9
0.180	-2.219e-5	-7.770e-9
0.174	-2.228e-5	-7.769e-9
0.168	-2.246e-5	-7.754e-9
0.162	-2.262e-5	-7.762e-9
0.156	-2.283e-5	-7.757e-9
0.150	-2.296e-5	-7.759e-9
0.144	-2.312e-5	-7.755e-9
0.138	-2.329e-5	-7.757e-9
0.132	-2.350e-5	-7.763e-9
0.126	-2.362e-5	-7.757e-9
0.120	-2.381e-5	-7.756e-9
0.114	-2.402e-5	-7.760e-9
0.108	-2.423e-5	-7.762e-9
0.102	-2.445e-5	-7.758e-9
0.096	-2.460e-5	-7.757e-9
0.090	-2.483e-5	-7.761e-9
0.084	-2.505e-5	-7.761e-9
0.078	-2.522e-5	-7.761e-9
0.072	-2.538e-5	-7.752e-9
0.066	-2.558e-5	-7.757e-9
0.060	-2.579e-5	-7.755e-9
0.054	-2.594e-5	-7.742e-9
0.048	-2.613e-5	-7.749e-9
0.042	-2.630e-5	-7.752e-9
0.036	-2.650e-5	-7.762e-9
0.030	-2.664e-5	-7.745e-9
0.024	-2.674e-5	-7.749e-9
0.018	-2.690e-5	-7.751e-9
0.012	-2.705e-5	-7.752e-9
0.006	-2.712e-5	-7.744e-9
0.000	-2.743e-5	-7.750e-9
-0.006	-2.739e-5	-7.757e-9
-0.012	-2.747e-5	-7.770e-9
-0.018	-2.748e-5	-7.759e-9
-0.024	-2.751e-5	-7.752e-9
-0.030	-2.755e-5	-7.750e-9
-0.036	-2.756e-5	-7.752e-9
-0.042	-2.751e-5	-7.748e-9
-0.048	-2.747e-5	-7.744e-9
-0.054	-2.745e-5	-7.743e-9
-0.060	-2.743e-5	-7.735e-9
-0.066	-2.732e-5	-7.750e-9
-0.072	-2.723e-5	-7.749e-9
-0.078	-2.714e-5	-7.748e-9
-0.084	-2.705e-5	-7.750e-9
-0.090	-2.690e-5	-7.742e-9
-0.096	-2.677e-5	-7.744e-9
-0.102	-2.666e-5	-7.754e-9
-0.108	-2.654e-5	-7.751e-9
-0.114	-2.637e-5	-7.755e-9
-0.120	-2.624e-5	-7.761e-9
-0.126	-2.610e-5	-7.761e-9
-0.132	-2.600e-5	-7.756e-9
-0.138	-2.583e-5	-7.754e-9
-0.144	-2.574e-5	-7.757e-9
-0.150	-2.566e-5	-7.764e-9
-0.156	-2.560e-5	-7.759e-9
-0.162	-2.549e-5	-7.758e-9
-0.168	-2.549e-5	-7.762e-9
-0.174	-2.551e-5	-7.750e-9
-0.180	-2.556e-5	-7.752e-9
-0.186	-2.560e-5	-7.757e-9
-0.192	-2.572e-5	-7.753e-9
-0.198	-2.590e-5	-7.756e-9
-0.204	-2.613e-5	-7.754e-9
-0.210	-2.637e-5	-7.758e-9
-0.216	-2.670e-5	-7.747e-9
-0.222	-2.708e-5	-7.751e-9
-0.228	-2.749e-5	-7.744e-9
-0.234	-2.795e-5	-7.747e-9
-0.240	-2.850e-5	-7.764e-9
-0.246	-2.913e-5	-7.763e-9
-0.252	-2.982e-5	-7.764e-9
-0.258	-3.050e-5	-7.764e-9
-0.264	-3.126e-5	-7.762e-9
-0.270	-3.210e-5	-7.760e-9
-0.276	-3.299e-5	-7.762e-9
-0.282	-3.387e-5	-7.754e-9
-0.288	-3.485e-5	-7.760e-9
-0.294	-3.591e-5	-7.756e-9
-0.300	-3.703e-5	-7.760e-9
-0.306	-3.814e-5	-7.745e-9
-0.312	-3.937e-5	-7.755e-9
-0.318	-4.066e-5	-7.747e-9
-0.324	-4.203e-5	-7.749e-9
-0.330	-4.340e-5	-7.749e-9
-0.336	-4.485e-5	-7.741e-9
-0.342	-4.638e-5	-7.739e-9
-0.348	-4.797e-5	-7.747e-9
-0.354	-4.953e-5	-7.764e-9
-0.360	-5.121e-5	-7.764e-9
-0.366	-5.290e-5	-7.756e-9
-0.372	-5.474e-5	-7.764e-9
-0.378	-5.655e-5	-7.757e-9
-0.384	-5.836e-5	-7.760e-9
-0.390	-6.024e-5	-7.746e-9
-0.396	-6.216e-5	-7.748e-9
-0.402	-6.409e-5	-7.757e-9
-0.408	-6.598e-5	-7.746e-9
-0.414	-6.795e-5	-7.758e-9
-0.420	-6.992e-5	-7.757e-9
-0.426	-7.183e-5	-7.746e-9
-0.432	-7.378e-5	-7.756e-9
-0.438	-7.571e-5	-7.743e-9
-0.444	-7.765e-5	-7.749e-9
-0.450	-7.953e-5	-7.739e-9
-0.456	-8.137e-5	-7.731e-9
-0.462	-8.320e-5	-7.733e-9
-0.468	-8.504e-5	-7.724e-9
-0.474	-8.673e-5	-7.722e-9
-0.480	-8.834e-5	-7.769e-9
-0.486	-8.990e-5	-7.770e-9
-0.492	-9.145e-5	-7.776e-9
-0.498	-9.285e-5	-7.766e-9
-0.504	-9.416e-5	-7.762e-9
-0.510	-9.541e-5	-7.766e-9
-0.516	-9.661e-5	-7.766e-9
-0.522	-9.766e-5	-7.771e-9
-0.528	-9.864e-5	-7.763e-9
-0.534	-9.950e-5	-7.765e-9
-0.540	-1.003e-4	-7.756e-9
-0.546	-1.010e-4	-7.762e-9
-0.552	-1.016e-4	-7.756e-9
-0.558	-1.021e-4	-7.766e-9
-0.564	-1.025e-4	-7.761e-9
-0.570	-1.028e-4	-7.760e-9
-0.576	-1.030e-4	-7.773e-9
-0.582	-1.032e-4	-7.767e-9
-0.588	-1.034e-4	-7.756e-9
-0.594	-1.034e-4	-7.761e-9
-0.600	-1.003e-4	-7.749e-9
-0.594	-8.452e-5	-7.712e-9
-0.588	-7.570e-5	-7.728e-9
-0.582	-6.882e-5	-7.742e-9
-0.576	-6.319e-5	-7.738e-9
-0.570	-5.822e-5	-7.736e-9
-0.564	-5.381e-5	-7.745e-9
-0.558	-4.984e-5	-7.751e-9
-0.552	-4.631e-5	-7.721e-9
-0.546	-4.293e-5	-7.730e-9
-0.540	-3.983e-5	-7.731e-9
-0.534	-3.696e-5	-7.743e-9
-0.528	-3.431e-5	-7.743e-9
-0.522	-3.177e-5	-7.750e-9
-0.516	-2.933e-5	-7.752e-9
-0.510	-2.706e-5	-7.736e-9
-0.504	-2.497e-5	-7.740e-9
-0.498	-2.292e-5	-7.743e-9
-0.492	-2.085e-5	-7.744e-9
-0.486	-1.896e-5	-7.757e-9
-0.480	-1.720e-5	-7.748e-9
-0.474	-1.539e-5	-7.748e-9
-0.468	-1.365e-5	-7.747e-9
-0.462	-1.204e-5	-7.757e-9
-0.456	-1.050e-5	-7.763e-9
-0.450	-8.922e-6	-7.720e-9
-0.444	-7.485e-6	-7.663e-9
-0.438	-6.082e-6	-7.674e-9
-0.432	-4.667e-6	-7.679e-9
-0.426	-3.336e-6	-7.666e-9
-0.420	-2.068e-6	-7.683e-9
-0.414	-8.885e-7	-7.679e-9
-0.408	3.033e-7	-7.678e-9
-0.402	1.499e-6	-7.684e-9
-0.396	2.540e-6	-7.685e-9
-0.390	3.631e-6	-7.683e-9
-0.384	4.646e-6	-7.703e-9
-0.378	5.629e-6	-7.683e-9
-0.372	6.645e-6	-7.690e-9
-0.366	7.606e-6	-7.691e-9
-0.360	8.461e-6	-7.701e-9
-0.354	9.370e-6	-7.704e-9
-0.348	1.024e-5	-7.700e-9
-0.342	1.101e-5	-7.684e-9
-0.336	1.174e-5	-7.681e-9
-0.330	1.249e-5	-7.680e-9
-0.324	1.326e-5	-7.686e-9
-0.318	1.388e-5	-7.692e-9
-0.312	1.447e-5	-7.699e-9
-0.306	1.510e-5	-7.682e-9
-0.300	1.573e-5	-7.689e-9
-0.294	1.634e-5	-7.681e-9
-0.288	1.690e-5	-7.679e-9
-0.282	1.743e-5	-7.686e-9
-0.276	1.792e-5	-7.697e-9
-0.270	1.836e-5	-7.689e-9
-0.264	1.875e-5	-7.679e-9
-0.258	1.922e-5	-7.693e-9
-0.252	1.964e-5	-7.697e-9
-0.246	1.998e-5	-7.697e-9
-0.240	2.026e-5	-7.695e-9
-0.234	2.066e-5	-7.701e-9
-0.228	2.099e-5	-7.691e-9
-0.222	2.138e-5	-7.692e-9
-0.216	2.168e-5	-7.691e-9
-0.210	2.194e-5	-7.696e-9
-0.204	2.231e-5	-7.701e-9
-0.198	2.259e-5	-7.694e-9
-0.192	2.274e-5	-7.699e-9
-0.186	2.296e-5	-7.693e-9
-0.180	2.326e-5	-7.700e-9
-0.174	2.345e-5	-7.696e-9
-0.168	2.364e-5	-7.701e-9
-0.162	2.386e-5	-7.693e-9
-0.156	2.418e-5	-7.695e-9
-0.150	2.444e-5	-7.699e-9
-0.144	2.465e-5	-7.697e-9
-0.138	2.485e-5	-7.700e-9
-0.132	2.506e-5	-7.697e-9
-0.126	2.525e-5	-7.692e-9
-0.120	2.550e-5	-7.688e-9
-0.114	2.578e-5	-7.697e-9
-0.108	2.608e-5	-7.690e-9
-0.102	2.633e-5	-7.694e-9
-0.096	2.651e-5	-7.693e-9
-0.090	2.677e-5	-7.702e-9
-0.084	2.705e-5	-7.709e-9
-0.078	2.736e-5	-7.696e-9
-0.072	2.761e-5	-7.706e-9
-0.066	2.793e-5	-7.711e-9
-0.060	2.825e-5	-7.706e-9
-0.054	2.843e-5	-7.706e-9
-0.048	2.872e-5	-7.707e-9
-0.042	2.907e-5	-7.703e-9
-0.036	2.946e-5	-7.710e-9
-0.030	2.987e-5	-7.710e-9
-0.024	3.025e-5	-7.707e-9
-0.018	3.069e-5	-7.671e-9
-0.012	3.118e-5	-7.667e-9
-0.006	3.173e-5	-7.674e-9
-0.000	3.242e-5	-7.665e-9
0.006	3.287e-5	-7.662e-9
0.012	3.345e-5	-7.664e-9
0.018	3.401e-5	-7.667e-9
0.024	3.455e-5	-7.673e-9
0.030	3.508e-5	-7.670e-9
0.036	3.569e-5	-7.680e-9
0.042	3.636e-5	-7.675e-9
0.048	3.711e-5	-7.680e-9
0.054	3.785e-5	-7.675e-9
0.060	3.861e-5	-7.691e-9
0.066	3.934e-5	-7.687e-9
0.072	4.004e-5	-7.698e-9
0.078	4.079e-5	-7.689e-9
0.084	4.156e-5	-7.681e-9
0.090	4.235e-5	-7.682e-9
0.096	4.311e-5	-7.678e-9
0.102	4.390e-5	-7.691e-9
0.108	4.466e-5	-7.689e-9
0.114	4.534e-5	-7.681e-9
0.120	4.594e-5	-7.684e-9
0.126	4.649e-5	-7.682e-9
0.132	4.692e-5	-7.686e-9
0.138	4.731e-5	-7.692e-9
0.144	4.762e-5	-7.697e-9
0.150	4.788e-5	-7.699e-9
0.156	4.788e-5	-7.696e-9
0.162	4.761e-5	-7.691e-9
0.168	4.707e-5	-7.692e-9
0.174	4.636e-5	-7.690e-9
0.180	4.540e-5	-7.689e-9
0.186	4.447e-5	-7.692e-9
0.192	4.356e-5	-7.685e-9
0.198	4.273e-5	-7.693e-9
0.204	4.203e-5	-7.678e-9
0.210	4.148e-5	-7.674e-9
0.216	4.096e-5	-7.670e-9
0.222	4.053e-5	-7.684e-9
0.228	4.032e-5	-7.685e-9
0.234	4.001e-5	-7.691e-9
0.240	3.972e-5	-7.683e-9
0.246	3.955e-5	-7.684e-9
0.252	3.949e-5	-7.691e-9
0.258	3.940e-5	-7.687e-9
0.264	3.932e-5	-7.682e-9
0.270	3.927e-5	-7.680e-9
0.276	3.922e-5	-7.686e-9
0.282	3.916e-5	-7.681e-9
0.288	3.914e-5	-7.673e-9
0.294	3.907e-5	-7.681e-9
0.300	3.903e-5	-7.683e-9
0.306	3.896e-5	-7.687e-9
0.312	3.889e-5	-7.682e-9
0.318	3.883e-5	-7.689e-9
0.324	3.880e-5	-7.677e-9
0.330	3.868e-5	-7.691e-9
0.336	3.856e-5	-7.691e-9
0.342	3.846e-5	-7.688e-9
0.348	3.837e-5	-7.690e-9
0.354	3.817e-5	-7.693e-9
0.360	3.799e-5	-7.683e-9
0.366	3.786e-5	-7.680e-9
0.372	3.772e-5	-7.684e-9
0.378	3.752e-5	-7.686e-9
0.384	3.734e-5	-7.680e-9
0.390	3.716e-5	-7.685e-9
0.396	3.699e-5	-7.689e-9
0.402	3.676e-5	-7.680e-9
0.408	3.658e-5	-7.680e-9
0.414	3.653e-5	-7.676e-9
0.420	3.641e-5	-7.672e-9
0.426	3.619e-5	-7.674e-9
0.432	3.599e-5	-7.678e-9
0.438	3.591e-5	-7.673e-9
0.444	3.587e-5	-7.671e-9
0.450	3.579e-5	-7.680e-9
0.456	3.572e-5	-7.678e-9
0.462	3.569e-5	-7.678e-9
0.468	3.567e-5	-7.678e-9
0.474	3.562e-5	-7.686e-9
0.480	3.558e-5	-7.677e-9
0.486	3.560e-5	-7.689e-9
0.492	3.571e-5	-7.680e-9
0.498	3.570e-5	-7.685e-9
0.504	3.570e-5	-7.686e-9
0.510	3.582e-5	-7.688e-9
0.516	3.598e-5	-7.684e-9
0.522	3.603e-5	-7.687e-9
0.528	3.623e-5	-7.682e-9
0.534	3.647e-5	-7.687e-9
0.540	3.673e-5	-7.684e-9
0.546	3.694e-5	-7.690e-9
0.552	3.718e-5	-7.693e-9
0.558	3.750e-5	-7.688e-9
0.564	3.788e-5	-7.688e-9
0.570	3.817e-5	-7.690e-9
0.576	3.852e-5	-7.687e-9
0.582	3.898e-5	-7.691e-9
0.588	3.943e-5	-7.694e-9
0.594	3.987e-5	-7.685e-9
0.600	4.036e-5	-7.687e-9
0.606	4.095e-5	-7.689e-9
0.612	4.161e-5	-7.681e-9
0.618	4.226e-5	-7.685e-9
0.624	4.288e-5	-7.688e-9
0.630	4.360e-5	-7.694e-9
0.636	4.437e-5	-7.694e-9
0.642	4.508e-5	-7.706e-9
0.648	4.586e-5	-7.699e-9
0.654	4.667e-5	-7.704e-9
0.660	4.752e-5	-7.695e-9
0.666	4.833e-5	-7.709e-9
0.672	4.907e-5	-7.706e-9
0.678	4.989e-5	-7.708e-9
0.684	5.072e-5	-7.690e-9
0.690	5.150e-5	-7.702e-9
0.696	5.222e-5	-7.689e-9
0.702	5.291e-5	-7.703e-9
0.708	5.361e-5	-7.696e-9
0.714	5.428e-5	-7.696e-9
0.720	5.498e-5	-7.690e-9
0.726	5.577e-5	-7.701e-9
0.732	5.653e-5	-7.684e-9
0.738	5.723e-5	-7.697e-9
0.744	5.800e-5	-7.700e-9
0.750	5.880e-5	-7.704e-9
0.756	5.965e-5	-7.706e-9
0.762	6.044e-5	-7.685e-9
0.768	6.132e-5	-7.696e-9
0.774	6.219e-5	-7.693e-9
0.780	6.316e-5	-7.691e-9
0.786	6.408e-5	-7.705e-9
0.792	6.511e-5	-7.708e-9
0.798	6.622e-5	-7.698e-9
0.804	6.730e-5	-7.700e-9
0.810	6.841e-5	-7.705e-9
0.816	6.957e-5	-7.696e-9
0.822	7.105e-5	-7.656e-9
0.828	7.241e-5	-7.664e-9
0.834	7.387e-5	-7.672e-9
0.840	7.533e-5	-7.647e-9
0.846	7.688e-5	-7.667e-9
0.852	7.856e-5	-7.675e-9
0.858	8.027e-5	-7.666e-9
0.864	8.209e-5	-7.658e-9
0.870	8.419e-5	-7.688e-9
0.876	8.636e-5	-7.679e-9
0.882	8.861e-5	-7.703e-9
0.888	9.102e-5	-7.674e-9
0.894	9.350e-5	-7.685e-9
0.900	8.979e-5	-7.699e-9
0.894	5.242e-5	-7.698e-9
0.888	4.182e-5	-7.707e-9
0.882	3.444e-5	-7.690e-9
0.876	2.866e-5	-7.719e-9
0.870	2.404e-5	-7.707e-9
0.864	2.019e-5	-7.717e-9
0.858	1.687e-5	-7.704e-9
0.852	1.401e-5	-7.698e-9
0.846	1.158e-5	-7.691e-9
0.840	9.468e-6	-7.701e-9
0.834	7.531e-6	-7.695e-9
0.828	5.731e-6	-7.698e-9
0.822	4.228e-6	-7.696e-9
0.816	2.708e-6	-7.700e-9
0.810	1.500e-6	-7.694e-9
0.804	3.545e-7	-7.696e-9
0.798	-7.143e-7	-7.699e-9
0.792	-1.708e-6	-7.694e-9
0.786	-2.623e-6	-7.686e-9
0.780	-3.436e-6	-7.685e-9
0.774	-4.112e-6	-7.688e-9
0.768	-4.854e-6	-7.689e-9
0.762	-5.448e-6	-7.684e-9
0.756	-6.043e-6	-7.690e-9
0.750	-6.569e-6	-7.679e-9
0.744	-7.090e-6	-7.674e-9
0.738	-7.600e-6	-7.676e-9
0.732	-8.032e-6	-7.678e-9
0.726	-8.377e-6	-7.691e-9
0.720	-8.769e-6	-7.723e-9
0.714	-9.127e-6	-7.745e-9
0.708	-9.513e-6	-7.774e-9
0.702	-9.791e-6	-7.772e-9
0.696	-1.014e-5	-7.771e-9
0.690	-1.040e-5	-7.769e-9
0.684	-1.067e-5	-7.766e-9
0.678	-1.090e-5	-7.771e-9
0.672	-1.108e-5	-7.769e-9
0.666	-1.136e-5	-7.771e-9
0.660	-1.156e-5	-7.769e-9
0.654	-1.174e-5	-7.766e-9
0.648	-1.192e-5	-7.755e-9
0.642	-1.210e-5	-7.765e-9
0.636	-1.229e-5	-7.763e-9
0.630	-1.244e-5	-7.760e-9
0.624	-1.265e-5	-7.759e-9
0.618	-1.282e-5	-7.768e-9
0.612	-1.310e-5	-7.760e-9
0.606	-1.321e-5	-7.761e-9
0.600	-1.337e-5	-7.765e-9
0.594	-1.352e-5	-7.771e-9
0.588	-1.375e-5	-7.763e-9
0.582	-1.387e-5	-7.769e-9
0.576	-1.405e-5	-7.769e-9
0.570	-1.422e-5	-7.767e-9
0.564	-1.439e-5	-7.774e-9
0.558	-1.449e-5	-7.769e-9
0.552	-1.465e-5	-7.767e-9
0.546	-1.480e-5	-7.768e-9
0.540	-1.496e-5	-7.773e-9
0.534	-1.507e-5	-7.770e-9
0.528	-1.525e-5	-7.769e-9
0.522	-1.542e-5	-7.760e-9
0.516	-1.557e-5	-7.768e-9
0.510	-1.572e-5	-7.769e-9
0.504	-1.586e-5	-7.770e-9
0.498	-1.604e-5	-7.769e-9
0.492	-1.622e-5	-7.762e-9
0.486	-1.630e-5	-7.758e-9
0.480	-1.648e-5	-7.760e-9
0.474	-1.666e-5	-7.770e-9
0.468	-1.684e-5	-7.759e-9
0.462	-1.694e-5	-7.760e-9
0.456	-1.708e-5	-7.759e-9
0.450	-1.723e-5	-7.757e-9
0.444	-1.741e-5	-7.761e-9
0.438	-1.750e-5	-7.754e-9
0.432	-1.764e-5	-7.753e-9
0.426	-1.780e-5	-7.755e-9
0.420	-1.797e-5	-7.757e-9
0.414	-1.806e-5	-7.761e-9
0.408	-1.831e-5	-7.765e-9
0.402	-1.840e-5	-7.768e-9
0.396	-1.854e-5	-7.770e-9
0.390	-1.862e-5	-7.771e-9
0.384	-1.872e-5	-7.762e-9
0.378	-1.880e-5	-7.769e-9
0.372	-1.889e-5	-7.763e-9
0.366	-1.891e-5	-7.766e-9
0.360	-1.894e-5	-7.764e-9
0.354	-1.898e-5	-7.765e-9
0.348	-1.905e-5	-7.761e-9
0.342	-1.903e-5	-7.765e-9
0.336	-1.908e-5	-7.769e-9
0.330	-1.910e-5	-7.757e-9
0.324	-1.922e-5	-7.764e-9
0.318	-1.926e-5	-7.768e-9
0.312	-1.936e-5	-7.769e-9
0.306	-1.950e-5	-7.770e-9
0.300	-1.961e-5	-7.774e-9
0.294	-1.971e-5	-7.773e-9
0.288	-1.984e-5	-7.767e-9
0.282	-1.993e-5	-7.783e-9
0.276	-2.011e-5	-7.766e-9
0.270	-2.021e-5	-7.761e-9
0.264	-2.037e-5	-7.763e-9
0.258	-2.051e-5	-7.773e-9
0.252	-2.070e-5	-7.765e-9
0.246	-2.082e-5	-7.770e-9
0.240	-2.095e-5	-7.768e-9
0.234	-2.114e-5	-7.755e-9
0.228	-2.132e-5	-7.758e-9
0.222	-2.143e-5	-7.752e-9
0.216	-2.158e-5	-7.759e-9
0.210	-2.173e-5	-7.754e-9
0.204	-2.200e-5	-7.746e-9
0.198	-2.203e-5	-7.749e-9
0.192	-2.219e-5	-7.753e-9
0.186	-2.236e-5	-7.754e-9
0.180	-2.253e-5	-7.759e-9
0.174	-2.263e-5	-7.762e-9
0.168	-2.278e-5	-7.757e-9
0.162	-2.293e-5	-7.758e-9
0.156	-2.310e-5	-7.751e-9
0.150	-2.321e-5	-7.755e-9
0.144	-2.337e-5	-7.753e-9
0.138	-2.353e-5	-7.748e-9
0.132	-2.371e-5	-7.760e-9
0.126	-2.381e-5	-7.751e-9
0.120	-2.398e-5	-7.755e-9
0.114	-2.416e-5	-7.755e-9
0.108	-2.437e-5	-7.755e-9
0.102	-2.455e-5	-7.745e-9
0.096	-2.468e-5	-7.747e-9
0.090	-2.485e-5	-7.757e-9
0.084	-2.504e-5	-7.758e-9
0.078	-2.517e-5	-7.758e-9
0.072	-2.528e-5	-7.753e-9
0.066	-2.546e-5	-7.747e-9
0.060	-2.565e-5	-7.751e-9
0.054	-2.576e-5	-7.746e-9
0.048	-2.591e-5	-7.751e-9
0.042	-2.604e-5	-7.740e-9
0.036	-2.620e-5	-7.743e-9
0.030	-2.628e-5	-7.750e-9
0.024	-2.637e-5	-7.745e-9
0.018	-2.648e-5	-7.748e-9
0.012	-2.657e-5	-7.748e-9
0.006	-2.659e-5	-7.746e-9
0.000	-2.686e-5	-7.748e-9
-0.006	-2.678e-5	-7.758e-9
-0.012	-2.681e-5	-7.757e-9
-0.018	-2.677e-5	-7.750e-9
-0.024	-2.678e-5	-7.758e-9
-0.030	-2.675e-5	-7.759e-9
-0.036	-2.671e-5	-7.754e-9
-0.042	-2.660e-5	-7.759e-9
-0.048	-2.654e-5	-7.761e-9
-0.054	-2.644e-5	-7.757e-9
-0.060	-2.638e-5	-7.750e-9
-0.066	-2.624e-5	-7.758e-9
-0.072	-2.611e-5	-7.758e-9
-0.078	-2.596e-5	-7.762e-9
-0.084	-2.583e-5	-7.755e-9
-0.090	-2.565e-5	-7.751e-9
-0.096	-2.549e-5	-7.756e-9
-0.102	-2.534e-5	-7.761e-9
-0.108	-2.521e-5	-7.761e-9
-0.114	-2.502e-5	-7.754e-9
-0.120	-2.482e-5	-7.758e-9
-0.126	-2.469e-5	-7.756e-9
-0.132	-2.457e-5	-7.758e-9
-0.138	-2.442e-5	-7.754e-9
-0.144	-2.425e-5	-7.762e-9
-0.150	-2.413e-5	-7.759e-9
-0.156	-2.404e-5	-7.758e-9
-0.162	-2.389e-5	-7.752e-9
-0.168	-2.381e-5	-7.755e-9
-0.174	-2.375e-5	-7.754e-9
-0.180	-2.376e-5	-7.751e-9
-0.186	-2.375e-5	-7.747e-9
-0.192	-2.379e-5	-7.752e-9
-0.198	-2.389e-5	-7.756e-9
-0.204	-2.404e-5	-7.758e-9
-0.210	-2.420e-5	-7.765e-9
-0.216	-2.439e-5	-7.757e-9
-0.222	-2.466e-5	-7.766e-9
-0.228	-2.497e-5	-7.762e-9
-0.234	-2.531e-5	-7.764e-9
-0.240	-2.572e-5	-7.750e-9
-0.246	-2.617e-5	-7.757e-9
-0.252	-2.671e-5	-7.751e-9
-0.258	-2.727e-5	-7.752e-9
-0.264	-2.787e-5	-7.763e-9
-0.270	-2.857e-5	-7.768e-9
-0.276	-2.934e-5	-7.769e-9
-0.282	-3.006e-5	-7.767e-9
-0.288	-3.089e-5	-7.752e-9
-0.294	-3.179e-5	-7.758e-9
-0.300	-3.275e-5	-7.757e-9
-0.306	-3.372e-5	-7.758e-9
-0.312	-3.479e-5	-7.757e-9
-0.318	-3.590e-5	-7.750e-9
-0.324	-3.709e-5	-7.747e-9
-0.330	-3.829e-5	-7.748e-9
-0.336	-3.959e-5	-7.746e-9
-0.342	-4.094e-5	-7.741e-9
-0.348	-4.237e-5	-7.741e-9
-0.354	-4.382e-5	-7.758e-9
-0.360	-4.537e-5	-7.740e-9
-0.366	-4.690e-5	-7.735e-9
-0.372	-4.854e-5	-7.768e-9
-0.378	-5.012e-5	-7.766e-9
-0.384	-5.179e-5	-7.765e-9
-0.390	-5.351e-5	-7.757e-9
-0.396	-5.528e-5	-7.756e-9
-0.402	-5.702e-5	-7.745e-9
-0.408	-5.883e-5	-7.766e-9
-0.414	-6.070e-5	-7.757e-9
-0.420	-6.255e-5	-7.744e-9
-0.426	-6.431e-5	-7.735e-9
-0.432	-6.614e-5	-7.733e-9
-0.438	-6.800e-5	-7.747e-9
-0.444	-6.984e-5	-7.754e-9
-0.450	-7.164e-5	-7.748e-9
-0.456	-7.342e-5	-7.744e-9
-0.462	-7.515e-5	-7.742e-9
-0.468	-7.692e-5	-7.739e-9
-0.474	-7.858e-5	-7.752e-9
-0.480	-8.020e-5	-7.735e-9
-0.486	-8.181e-5	-7.732e-9
-0.492	-8.335e-5	-7.738e-9
-0.498	-8.482e-5	-7.713e-9
-0.504	-8.619e-5	-7.732e-9
-0.510	-8.748e-5	-7.754e-9
-0.516	-8.874e-5	-7.781e-9
-0.522	-8.988e-5	-7.770e-9
-0.528	-9.089e-5	-7.773e-9
-0.534	-9.190e-5	-7.762e-9
-0.540	-9.282e-5	-7.768e-9
-0.546	-9.359e-5	-7.767e-9
-0.552	-9.428e-5	-7.766e-9
-0.558	-9.491e-5	-7.758e-9
-0.564	-9.551e-5	-7.761e-9
-0.570	-9.597e-5	-7.766e-9
-0.576	-9.638e-5	-7.757e-9
-0.582	-9.674e-5	-7.768e-9
-0.588	-9.706e-5	-7.769e-9
-0.594	-9.726e-5	-7.767e-9
-0.600	-9.432e-5	-7.749e-9
-0.594	-7.899e-5	-7.728e-9
-0.588	-7.062e-5	-7.735e-9
-0.582	-6.416e-5	-7.732e-9
-0.576	-5.876e-5	-7.736e-9
-0.570	-5.408e-5	-7.736e-9
-0.564	-4.986e-5	-7.749e-9
-0.558	-4.616e-5	-7.719e-9
-0.552	-4.271e-5	-7.722e-9
-0.546	-3.957e-5	-7.734e-9
-0.540	-3.662e-5	-7.731e-9
-0.534	-3.395e-5	-7.745e-9
-0.528	-3.144e-5	-7.750e-9
-0.522	-2.902e-5	-7.761e-9
-0.516	-2.671e-5	-7.735e-9
-0.510	-2.454e-5	-7.740e-9
-0.504	-2.254e-5	-7.737e-9
-0.498	-2.056e-5	-7.749e-9
-0.492	-1.868e-5	-7.746e-9
-0.486	-1.688e-5	-7.743e-9
-0.480	-1.511e-5	-7.754e-9
-0.474	-1.346e-5	-7.753e-9
-0.468	-1.179e-5	-7.758e-9
-0.462	-1.021e-5	-7.767e-9
-0.456	-8.712e-6	-7.706e-9
-0.450	-7.357e-6	-7.663e-9
-0.444	-5.916e-6	-7.667e-9
-0.438	-4.528e-6	-7.671e-9
-0.432	-3.295e-6	-7.670e-9
-0.426	-2.006e-6	-7.672e-9
-0.420	-7.605e-7	-7.680e-9
-0.414	4.194e-7	-7.682e-9
-0.408	1.584e-6	-7.683e-9
-0.402	2.640e-6	-7.686e-9
-0.396	3.728e-6	-7.694e-9
-0.390	4.779e-6	-7.685e-9
-0.384	5.738e-6	-7.684e-9
-0.378	6.730e-6	-7.680e-9
-0.372	7.678e-6	-7.688e-9
-0.366	8.508e-6	-7.694e-9
-0.360	9.369e-6	-7.698e-9
-0.354	1.020e-5	-7.690e-9
-0.348	1.105e-5	-7.688e-9
-0.342	1.184e-5	-7.683e-9
-0.336	1.255e-5	-7.683e-9
-0.330	1.327e-5	-7.683e-9
-0.324	1.395e-5	-7.685e-9
-0.318	1.458e-5	-7.690e-9
-0.312	1.515e-5	-7.686e-9
-0.306	1.576e-5	-7.686e-9
-0.300	1.642e-5	-7.682e-9
-0.294	1.695e-5	-7.678e-9
-0.288	1.739e-5	-7.684e-9
-0.282	1.788e-5	-7.695e-9
-0.276	1.836e-5	-7.677e-9
-0.270	1.882e-5	-7.682e-9
-0.264	1.926e-5	-7.690e-9
-0.258	1.965e-5	-7.687e-9
-0.252	2.003e-5	-7.691e-9
-0.246	2.041e-5	-7.694e-9
-0.240	2.075e-5	-7.690e-9
-0.234	2.111e-5	-7.685e-9
-0.228	2.150e-5	-7.687e-9
-0.222	2.179e-5	-7.689e-9
-0.216	2.210e-5	-7.694e-9
-0.210	2.236e-5	-7.691e-9
-0.204	2.267e-5	-7.685e-9
-0.198	2.295e-5	-7.696e-9
-0.192	2.319e-5	-7.698e-9
-0.186	2.344e-5	-7.696e-9
-0.180	2.372e-5	-7.697e-9
-0.174	2.396e-5	-7.699e-9
-0.168	2.414e-5	-7.700e-9
-0.162	2.441e-5	-7.698e-9
-0.156	2.463e-5	-7.704e-9
-0.150	2.489e-5	-7.704e-9
-0.144	2.513e-5	-7.713e-9
-0.138	2.532e-5	-7.700e-9
-0.132	2.554e-5	-7.697e-9
-0.126	2.578e-5	-7.700e-9
-0.120	2.596e-5	-7.697e-9
-0.114	2.621e-5	-7.691e-9
-0.108	2.649e-5	-7.697e-9
-0.102	2.674e-5	-7.700e-9
-0.096	2.688e-5	-7.695e-9
-0.090	2.711e-5	-7.697e-9
-0.084	2.737e-5	-7.706e-9
-0.078	2.765e-5	-7.700e-9
-0.072	2.801e-5	-7.697e-9
-0.066	2.822e-5	-7.699e-9
-0.060	2.856e-5	-7.708e-9
-0.054	2.891e-5	-7.711e-9
-0.048	2.923e-5	-7.708e-9
-0.042	2.956e-5	-7.714e-9
-0.036	3.002e-5	-7.707e-9
-0.030	3.043e-5	-7.703e-9
-0.024	3.082e-5	-7.687e-9
-0.018	3.117e-5	-7.682e-9
-0.012	3.156e-5	-7.678e-9
-0.006	3.194e-5	-7.680e-9
-0.000	3.256e-5	-7.672e-9
0.006	3.298e-5	-7.671e-9
0.012	3.349e-5	-7.674e-9
0.018	3.399e-5	-7.667e-9
0.024	3.448e-5	-7.674e-9
0.030	3.498e-5	-7.671e-9
0.036	3.565e-5	-7.674e-9
0.042	3.630e-5	-7.672e-9
0.048	3.692e-5	-7.674e-9
0.054	3.761e-5	-7.681e-9
0.060	3.826e-5	-7.686e-9
0.066	3.894e-5	-7.686e-9
0.072	3.960e-5	-7.688e-9
0.078	4.029e-5	-7.688e-9
0.084	4.101e-5	-7.684e-9
0.090	4.170e-5	-7.680e-9
0.096	4.235e-5	-7.694e-9
0.102	4.311e-5	-7.702e-9
0.108	4.382e-5	-7.680e-9
0.114	4.440e-5	-7.686e-9
0.120	4.503e-5	-7.685e-9
0.126	4.570e-5	-7.678e-9
0.132	4.619e-5	-7.688e-9
0.138	4.661e-5	-7.693e-9
0.144	4.691e-5	-7.688e-9
0.150	4.710e-5	-7.688e-9
0.156	4.715e-5	-7.691e-9
0.162	4.695e-5	-7.693e-9
0.168	4.654e-5	-7.690e-9
0.174	4.597e-5	-7.685e-9
0.180	4.520e-5	-7.688e-9
0.186	4.437e-5	-7.695e-9
0.192	4.351e-5	-7.692e-9
0.198	4.268e-5	-7.693e-9
0.204	4.192e-5	-7.679e-9
0.210	4.126e-5	-7.679e-9
0.216	4.065e-5	-7.669e-9
0.222	4.014e-5	-7.684e-9
0.228	3.979e-5	-7.685e-9
0.234	3.946e-5	-7.683e-9
0.240	3.925e-5	-7.685e-9
0.246	3.912e-5	-7.686e-9
0.252	3.904e-5	-7.683e-9
0.258	3.896e-5	-7.679e-9
0.264	3.880e-5	-7.685e-9
0.270	3.873e-5	-7.697e-9
0.276	3.872e-5	-7.676e-9
0.282	3.869e-5	-7.691e-9
0.288	3.857e-5	-7.687e-9
0.294	3.856e-5	-7.693e-9
0.300	3.863e-5	-7.686e-9
0.306	3.851e-5	-7.676e-9
0.312	3.842e-5	-7.680e-9
0.318	3.835e-5	-7.679e-9
0.324	3.833e-5	-7.677e-9
0.330	3.815e-5	-7.663e-9
0.336	3.798e-5	-7.679e-9
0.342	3.790e-5	-7.680e-9
0.348	3.782e-5	-7.686e-9
0.354	3.767e-5	-7.691e-9
0.360	3.754e-5	-7.686e-9
0.366	3.740e-5	-7.681e-9
0.372	3.728e-5	-7.685e-9
0.378	3.709e-5	-7.680e-9
0.384	3.685e-5	-7.681e-9
0.390	3.673e-5	-7.692e-9
0.396	3.657e-5	-7.682e-9
0.402	3.639e-5	-7.673e-9
0.408	3.622e-5	-7.672e-9
0.414	3.616e-5	-7.675e-9
0.420	3.602e-5	-7.676e-9
0.426	3.585e-5	-7.688e-9
0.432	3.573e-5	-7.679e-9
0.438	3.563e-5	-7.674e-9
0.444	3.555e-5	-7.685e-9
0.450	3.543e-5	-7.689e-9
0.456	3.532e-5	-7.685e-9
0.462	3.532e-5	-7.678e-9
0.468	3.533e-5	-7.682e-9
0.474	3.524e-5	-7.679e-9
0.480	3.521e-5	-7.682e-9
0.486	3.524e-5	-7.681e-9
0.492	3.530e-5	-7.676e-9
0.498	3.531e-5	-7.693e-9
0.504	3.533e-5	-7.687e-9
0.510	3.543e-5	-7.681e-9
0.516	3.560e-5	-7.672e-9
0.522	3.570e-5	-7.668e-9
0.528	3.586e-5	-7.677e-9
0.534	3.605e-5	-7.670e-9
0.540	3.629e-5	-7.683e-9
0.546	3.647e-5	-7.679e-9
0.552	3.670e-5	-7.677e-9
0.558	3.701e-5	-7.683e-9
0.564	3.738e-5	-7.686e-9
0.570	3.764e-5	-7.684e-9
0.576	3.795e-5	-7.682e-9
0.582	3.840e-5	-7.684e-9
0.588	3.888e-5	-7.708e-9
0.594	3.931e-5	-7.692e-9
0.600	3.974e-5	-7.688e-9
0.606	4.031e-5	-7.699e-9
0.612	4.090e-5	-7.680e-9
0.618	4.154e-5	-7.681e-9
0.624	4.210e-5	-7.682e-9
0.630	4.286e-5	-7.687e-9
0.636	4.358e-5	-7.683e-9
0.642	4.422e-5	-7.694e-9
0.648	4.497e-5	-7.695e-9
0.654	4.576e-5	-7.692e-9
0.660	4.659e-5	-7.688e-9
0.666	4.739e-5	-7.700e-9
0.672	4.809e-5	-7.702e-9
0.678	4.891e-5	-7.700e-9
0.684	4.970e-5	-7.700e-9
0.690	5.042e-5	-7.696e-9
0.696	5.113e-5	-7.684e-9
0.702	5.190e-5	-7.697e-9
0.708	5.268e-5	-7.691e-9
0.714	5.332e-5	-7.699e-9
0.720	5.404e-5	-7.693e-9
0.726	5.472e-5	-7.696e-9
0.732	5.542e-5	-7.691e-9
0.738	5.610e-5	-7.694e-9
0.744	5.678e-5	-7.698e-9
0.750	5.756e-5	-7.700e-9
0.756	5.839e-5	-7.706e-9
0.762	5.918e-5	-7.700e-9
0.768	5.998e-5	-7.702e-9
0.774	6.082e-5	-7.695e-9
0.780	6.176e-5	-7.691e-9
0.786	6.259e-5	-7.701e-9
0.792	6.349e-5	-7.701e-9
0.798	6.454e-5	-7.710e-9
0.804	6.562e-5	-7.699e-9
0.810	6.671e-5	-7.710e-9
0.816	6.783e-5	-7.708e-9
0.822	6.917e-5	-7.708e-9
0.828	7.041e-5	-7.667e-9
0.834	7.162e-5	-7.668e-9
0.840	7.293e-5	-7.672e-9
0.846	7.432e-5	-7.680e-9
0.852	7.577e-5	-7.682e-9
0.858	7.727e-5	-7.686e-9
0.864	7.887e-5	-7.682e-9
0.870	8.074e-5	-7.679e-9
0.876	8.269e-5	-7.676e-9
0.882	8.467e-5	-7.684e-9
0.888	8.684e-5	-7.695e-9
0.894	8.916e-5	-7.709e-9
0.900	8.534e-5	-7.694e-9
0.894	4.907e-5	-7.713e-9
0.888	3.932e-5	-7.709e-9
0.882	3.256e-5	-7.683e-9
0.876	2.717e-5	-7.703e-9
0.870	2.289e-5	-7.707e-9
0.864	1.929e-5	-7.756e-9
0.858	1.621e-5	-7.714e-9
0.852	1.355e-5	-7.710e-9
0.846	1.120e-5	-7.698e-9
0.840	9.099e-6	-7.699e-9
0.834	7.214e-6	-7.706e-9
0.828	5.506e-6	-7.693e-9
0.822	4.098e-6	-7.695e-9
0.816	2.641e-6	-7.695e-9
0.810	1.432e-6	-7.705e-9
0.804	2.807e-7	-7.706e-9
0.798	-6.808e-7	-7.698e-9
0.792	-1.603e-6	-7.696e-9
0.786	-2.516e-6	-7.685e-9
0.780	-3.328e-6	-7.692e-9
0.774	-4.007e-6	-7.690e-9
0.768	-4.718e-6	-7.694e-9
0.762	-5.330e-6	-7.694e-9
0.756	-5.961e-6	-7.691e-9
0.750	-6.486e-6	-7.685e-9
0.744	-6.989e-6	-7.689e-9
0.738	-7.428e-6	-7.673e-9
0.732	-7.876e-6	-7.675e-9
0.726	-8.236e-6	-7.678e-9
0.720	-8.604e-6	-7.706e-9
0.714	-8.952e-6	-7.733e-9
0.708	-9.293e-6	-7.769e-9
0.702	-9.568e-6	-7.773e-9
0.696	-9.900e-6	-7.777e-9
0.690	-1.017e-5	-7.778e-9
0.684	-1.046e-5	-7.768e-9
0.678	-1.067e-5	-7.764e-9
0.672	-1.088e-5	-7.770e-9
0.666	-1.113e-5	-7.777e-9
0.660	-1.134e-5	-7.772e-9
0.654	-1.151e-5	-7.771e-9
0.648	-1.170e-5	-7.777e-9
0.642	-1.191e-5	-7.777e-9
0.636	-1.208e-5	-7.770e-9
0.630	-1.226e-5	-7.769e-9
0.624	-1.241e-5	-7.771e-9
0.618	-1.260e-5	-7.777e-9
0.612	-1.286e-5	-7.769e-9
0.606	-1.299e-5	-7.770e-9
0.600	-1.318e-5	-7.773e-9
0.594	-1.335e-5	-7.778e-9
0.588	-1.353e-5	-7.770e-9
0.582	-1.365e-5	-7.772e-9
0.576	-1.381e-5	-7.780e-9
0.570	-1.399e-5	-7.776e-9
0.564	-1.417e-5	-7.775e-9
0.558	-1.424e-5	-7.768e-9
0.552	-1.442e-5	-7.784e-9
0.546	-1.459e-5	-7.776e-9
0.540	-1.479e-5	-7.781e-9
0.534	-1.488e-5	-7.760e-9
0.528	-1.507e-5	-7.769e-9
0.522	-1.523e-5	-7.767e-9
0.516	-1.541e-5	-7.773e-9
0.510	-1.555e-5	-7.774e-9
0.504	-1.570e-5	-7.771e-9
0.498	-1.586e-5	-7.764e-9
0.492	-1.605e-5	-7.767e-9
0.486	-1.613e-5	-7.759e-9
0.480	-1.628e-5	-7.766e-9
0.474	-1.648e-5	-7.764e-9
0.468	-1.667e-5	-7.779e-9
0.462	-1.678e-5	-7.767e-9
0.456	-1.691e-5	-7.775e-9
0.450	-1.705e-5	-7.773e-9
0.444	-1.724e-5	-7.765e-9
0.438	-1.733e-5	-7.766e-9
0.432	-1.746e-5	-7.760e-9
0.426	-1.761e-5	-7.764e-9
0.420	-1.780e-5	-7.762e-9
0.414	-1.793e-5	-7.762e-9
0.408	-1.818e-5	-7.770e-9
0.402	-1.828e-5	-7.765e-9
0.396	-1.840e-5	-7.769e-9
0.390	-1.848e-5	-7.772e-9
0.384	-1.856e-5	-7.767e-9
0.378	-1.867e-5	-7.768e-9
0.372	-1.878e-5	-7.776e-9
0.366	-1.879e-5	-7.777e-9
0.360	-1.884e-5	-7.769e-9
0.354	-1.888e-5	-7.771e-9
0.348	-1.894e-5	-7.771e-9
0.342	-1.892e-5	-7.770e-9
0.336	-1.896e-5	-7.769e-9
0.330	-1.900e-5	-7.770e-9
0.324	-1.910e-5	-7.762e-9
0.318	-1.913e-5	-7.767e-9
0.312	-1.922e-5	-7.770e-9
0.306	-1.936e-5	-7.764e-9
0.300	-1.948e-5	-7.773e-9
0.294	-1.956e-5	-7.765e-9
0.288	-1.970e-5	-7.761e-9
0.282	-1.982e-5	-7.768e-9
0.276	-1.995e-5	-7.769e-9
0.270	-2.007e-5	-7.762e-9
0.264	-2.021e-5	-7.759e-9
0.258	-2.037e-5	-7.764e-9
0.252	-2.055e-5	-7.753e-9
0.246	-2.066e-5	-7.760e-9
0.240	-2.081e-5	-7.759e-9
0.234	-2.099e-5	-7.756e-9
0.228	-2.116e-5	-7.756e-9
0.222	-2.126e-5	-7.763e-9
0.216	-2.142e-5	-7.757e-9
0.210	-2.157e-5	-7.759e-9
0.204	-2.186e-5	-7.764e-9
0.198	-2.190e-5	-7.759e-9
0.192	-2.204e-5	-7.753e-9
0.186	-2.222e-5	-7.776e-9
0.180	-2.239e-5	-7.756e-9
0.174	-2.251e-5	-7.773e-9
0.168	-2.265e-5	-7.755e-9
0.162	-2.280e-5	-7.757e-9
0.156	-2.297e-5	-7.758e-9
0.150	-2.310e-5	-7.756e-9
0.144	-2.324e-5	-7.762e-9
0.138	-2.340e-5	-7.765e-9
0.132	-2.358e-5	-7.762e-9
0.126	-2.368e-5	-7.756e-9
0.120	-2.385e-5	-7.758e-9
0.114	-2.402e-5	-7.753e-9
0.108	-2.420e-5	-7.758e-9
0.102	-2.438e-5	-7.753e-9
0.096	-2.451e-5	-7.761e-9
0.090	-2.467e-5	-7.756e-9
0.084	-2.485e-5	-7.761e-9
0.078	-2.498e-5	-7.756e-9
0.072	-2.510e-5	-7.755e-9
0.066	-2.525e-5	-7.760e-9
0.060	-2.542e-5	-7.746e-9
0.054	-2.553e-5	-7.753e-9
0.048	-2.566e-5	-7.748e-9
0.042	-2.578e-5	-7.754e-9
0.036	-2.594e-5	-7.751e-9
0.030	-2.601e-5	-7.760e-9
0.024	-2.608e-5	-7.752e-9
0.018	-2.618e-5	-7.743e-9
0.012	-2.627e-5	-7.745e-9
0.006	-2.631e-5	-7.741e-9
0.000	-2.657e-5	-7.754e-9
-0.006	-2.648e-5	-7.751e-9
-0.012	-2.652e-5	-7.753e-9
-0.018	-2.648e-5	-7.748e-9
-0.024	-2.646e-5	-7.748e-9
-0.030	-2.644e-5	-7.738e-9
-0.036	-2.641e-5	-7.754e-9
-0.042	-2.632e-5	-7.750e-9
-0.048	-2.624e-5	-7.750e-9
-0.054	-2.615e-5	-7.758e-9
-0.060	-2.606e-5	-7.758e-9
-0.066	-2.591e-5	-7.752e-9
-0.072	-2.578e-5	-7.752e-9
-0.078	-2.564e-5	-7.751e-9
-0.084	-2.551e-5	-7.752e-9
-0.090	-2.531e-5	-7.762e-9
-0.096	-2.515e-5	-7.745e-9
-0.102	-2.499e-5	-7.751e-9
-0.108	-2.484e-5	-7.755e-9
-0.114	-2.465e-5	-7.753e-9
-0.120	-2.446e-5	-7.755e-9
-0.126	-2.428e-5	-7.758e-9
-0.132	-2.412e-5	-7.756e-9
-0.138	-2.392e-5	-7.769e-9
-0.144	-2.377e-5	-7.769e-9
-0.150	-2.361e-5	-7.762e-9
-0.156	-2.353e-5	-7.755e-9
-0.162	-2.341e-5	-7.768e-9
-0.168	-2.333e-5	-7.759e-9
-0.174	-2.325e-5	-7.758e-9
-0.180	-2.325e-5	-7.758e-9
-0.186	-2.324e-5	-7.756e-9
-0.192	-2.326e-5	-7.744e-9
-0.198	-2.336e-5	-7.759e-9
-0.204	-2.351e-5	-7.754e-9
-0.210	-2.363e-5	-7.763e-9
-0.216	-2.384e-5	-7.769e-9
-0.222	-2.407e-5	-7.777e-9
-0.228	-2.439e-5	-7.768e-9
-0.234	-2.469e-5	-7.763e-9
-0.240	-2.507e-5	-7.772e-9
-0.246	-2.553e-5	-7.769e-9
-0.252	-2.605e-5	-7.759e-9
-0.258	-2.658e-5	-7.762e-9
-0.264	-2.718e-5	-7.752e-9
-0.270	-2.785e-5	-7.758e-9
-0.276	-2.862e-5	-7.770e-9
-0.282	-2.937e-5	-7.775e-9
-0.288	-3.019e-5	-7.766e-9
-0.294	-3.108e-5	-7.765e-9
-0.300	-3.205e-5	-7.767e-9
-0.306	-3.304e-5	-7.768e-9
-0.312	-3.410e-5	-7.767e-9
-0.318	-3.523e-5	-7.759e-9
-0.324	-3.639e-5	-7.763e-9
-0.330	-3.760e-5	-7.757e-9
-0.336	-3.887e-5	-7.763e-9
-0.342	-4.022e-5	-7.767e-9
-0.348	-4.166e-5	-7.755e-9
-0.354	-4.311e-5	-7.750e-9
-0.360	-4.463e-5	-7.743e-9
-0.366	-4.622e-5	-7.739e-9
-0.372	-4.786e-5	-7.751e-9
-0.378	-4.943e-5	-7.773e-9
-0.384	-5.110e-5	-7.769e-9
-0.390	-5.281e-5	-7.762e-9
-0.396	-5.460e-5	-7.757e-9
-0.402	-5.634e-5	-7.759e-9
-0.408	-5.816e-5	-7.756e-9
-0.414	-5.999e-5	-7.755e-9
-0.420	-6.183e-5	-7.751e-9
-0.426	-6.364e-5	-7.761e-9
-0.432	-6.541e-5	-7.748e-9
-0.438	-6.726e-5	-7.741e-9
-0.444	-6.911e-5	-7.757e-9
-0.450	-7.090e-5	-7.750e-9
-0.456	-7.269e-5	-7.742e-9
-0.462	-7.443e-5	-7.753e-9
-0.468	-7.619e-5	-7.739e-9
-0.474	-7.782e-5	-7.743e-9
-0.480	-7.945e-5	-7.735e-9
-0.486	-8.101e-5	-7.737e-9
-0.492	-8.255e-5	-7.737e-9
-0.498	-8.400e-5	-7.734e-9
-0.504	-8.541e-5	-7.724e-9
-0.510	-8.670e-5	-7.720e-9
-0.516	-8.797e-5	-7.766e-9
-0.522	-8.909e-5	-7.777e-9
-0.528	-9.015e-5	-7.773e-9
-0.534	-9.116e-5	-7.755e-9
-0.540	-9.208e-5	-7.760e-9
-0.546	-9.286e-5	-7.759e-9
-0.552	-9.358e-5	-7.768e-9
-0.558	-9.423e-5	-7.764e-9
-0.564	-9.485e-5	-7.762e-9
-0.570	-9.532e-5	-7.755e-9
-0.576	-9.574e-5	-7.762e-9
-0.582	-9.613e-5	-7.755e-9
-0.588	-9.644e-5	-7.766e-9
-0.594	-9.668e-5	-7.763e-9
-0.599	-9.685e-5	-7.761e-9