File: data/cv/500 rpm CV.txt
June 22, 2016   14:10:00
Cyclic Voltammetry
File: c:\users\potentio2\desktop\suda\20160622\500 rpm cv.txt
Data Source:  Experiment
Instrument Model:  CHI7082E
Header:
Note:

Init E (V) = 0
High E (V) = 0.9
Low E (V) = -0.6
Init P/N = P
Scan Rate (V/s) = 0.01
Segment = 6
Sample Interval (V) = 0.001
Quiet Time (sec) = 2
Sensitivity (A/V) = 0.001
Sens 2 (A/V) = 0.001

Segment 1:
Ep = 0.268V
ip = 6.363e-8A
Ah = 1.339e-7C

Segment 2:

Segment 3:
Ep = 0.151V
ip = 1.972e-5A
Ah = 1.375e-4C

Segment 4:

Segment 5:
Ep = 0.159V
ip = 2.328e-5A
Ah = 1.688e-4C

Segment 6:

Current 2:

Segment 1:

Segment 2:
Ep = -0.405V
ip = -4.335e-8A
Ah = -1.163e-7C

Segment 3:
Segment 4:

Segment 5:
Segment 6:

Potential/V	i1/A	i2/A

0.000	-2.727e-5	-7.586e-6
0.006	-9.145e-6	-7.577e-6
0.012	5.474e-7	-7.523e-6
0.018	6.832e-6	-7.538e-6
0.024	1.117e-5	-7.547e-6
0.030	1.432e-5	-7.540e-6
0.036	1.674e-5	-7.548e-6
0.042	1.858e-5	-7.555e-6
0.048	1.989e-5	-7.567e-6
0.054	2.099e-5	-7.563e-6
0.060	2.184e-5	-7.557e-6
0.066	2.248e-5	-7.567e-6
0.072	2.296e-5	-7.567e-6
0.078	2.335e-5	-7.571e-6
0.084	2.369e-5	-7.577e-6
0.090	2.390e-5	-7.574e-6
0.096	2.407e-5	-7.572e-6
0.102	2.424e-5	-7.575e-6
0.108	2.438e-5	-7.572e-6
0.114	2.447e-5	-7.573e-6
0.120	2.451e-5	-7.584e-6
0.126	2.460e-5	-7.578e-6
0.132	2.467e-5	-7.590e-6
0.138	2.473e-5	-7.602e-6
0.144	2.469e-5	-7.599e-6
0.150	2.474e-5	-7.600e-6
0.156	2.479e-5	-7.597e-6
0.162	2.476e-5	-7.599e-6
0.168	2.479e-5	-7.607e-6
0.174	2.481e-5	-7.612e-6
0.180	2.482e-5	-7.606e-6
0.186	2.482e-5	-7.610e-6
0.192	2.483e-5	-7.610e-6
0.198	2.487e-5	-7.610e-6
0.204	2.492e-5	-7.611e-6
0.210	2.497e-5	-7.602e-6
0.216	2.491e-5	-7.606e-6
0.222	2.495e-5	-7.605e-6
0.228	2.496e-5	-7.609e-6
0.234	2.493e-5	-7.604e-6
0.240	2.491e-5	-7.610e-6
0.246	2.496e-5	-7.589e-6
0.252	2.500e-5	-7.610e-6
0.258	2.502e-5	-7.605e-6
0.264	2.500e-5	-7.608e-6
0.270	2.505e-5	-7.613e-6
0.276	2.507e-5	-7.622e-6
0.282	2.502e-5	-7.610e-6
0.288	2.498e-5	-7.618e-6
0.294	2.495e-5	-7.614e-6
0.300	2.499e-5	-7.617e-6
0.306	2.502e-5	-7.625e-6
0.312	2.504e-5	-7.625e-6
0.318	2.504e-5	-7.619e-6
0.324	2.508e-5	-7.616e-6
0.330	2.505e-5	-7.633e-6
0.336	2.496e-5	-7.637e-6
0.342	2.492e-5	-7.626e-6
0.348	2.492e-5	-7.631e-6
0.354	2.492e-5	-7.637e-6
0.360	2.489e-5	-7.633e-6
0.366	2.487e-5	-7.633e-6
0.372	2.492e-5	-7.631e-6
0.378	2.488e-5	-7.636e-6
0.384	2.483e-5	-7.639e-6
0.390	2.484e-5	-7.637e-6
0.396	2.488e-5	-7.641e-6
0.402	2.484e-5	-7.641e-6
0.408	2.479e-5	-7.647e-6
0.414	2.491e-5	-7.634e-6
0.420	2.490e-5	-7.628e-6
0.426	2.493e-5	-7.635e-6
0.432	2.491e-5	-7.626e-6
0.438	2.501e-5	-7.638e-6
0.444	2.503e-5	-7.633e-6
0.450	2.502e-5	-7.637e-6
0.456	2.501e-5	-7.650e-6
0.462	2.508e-5	-7.636e-6
0.468	2.512e-5	-7.632e-6
0.474	2.512e-5	-7.637e-6
0.480	2.514e-5	-7.636e-6
0.486	2.526e-5	-7.639e-6
0.492	2.536e-5	-7.636e-6
0.498	2.531e-5	-7.639e-6
0.504	2.531e-5	-7.646e-6
0.510	2.543e-5	-7.637e-6
0.516	2.555e-5	-7.608e-6
0.522	2.562e-5	-7.633e-6
0.528	2.575e-5	-7.634e-6
0.534	2.592e-5	-7.635e-6
0.540	2.607e-5	-7.640e-6
0.546	2.616e-5	-7.638e-6
0.552	2.630e-5	-7.640e-6
0.558	2.653e-5	-7.638e-6
0.564	2.678e-5	-7.638e-6
0.570	2.687e-5	-7.637e-6
0.576	2.702e-5	-7.646e-6
0.582	2.730e-5	-7.645e-6
0.588	2.764e-5	-7.648e-6
0.594	2.793e-5	-7.648e-6
0.600	2.822e-5	-7.653e-6
0.606	2.862e-5	-7.648e-6
0.612	2.913e-5	-7.637e-6
0.618	2.963e-5	-7.658e-6
0.624	3.005e-5	-7.657e-6
0.630	3.064e-5	-7.638e-6
0.636	3.096e-5	-7.626e-6
0.642	3.131e-5	-7.628e-6
0.648	3.168e-5	-7.636e-6
0.654	3.220e-5	-7.627e-6
0.660	3.274e-5	-7.631e-6
0.666	3.326e-5	-7.642e-6
0.672	3.373e-5	-7.643e-6
0.678	3.432e-5	-7.642e-6
0.684	3.487e-5	-7.640e-6
0.690	3.531e-5	-7.642e-6
0.696	3.582e-5	-7.639e-6
0.702	3.646e-5	-7.644e-6
0.708	3.716e-5	-7.642e-6
0.714	3.779e-5	-7.642e-6
0.720	3.843e-5	-7.646e-6
0.726	3.919e-5	-7.646e-6
0.732	4.001e-5	-7.656e-6
0.738	4.080e-5	-7.662e-6
0.744	4.163e-5	-7.648e-6
0.750	4.252e-5	-7.650e-6
0.756	4.333e-5	-7.654e-6
0.762	4.411e-5	-7.658e-6
0.768	4.499e-5	-7.660e-6
0.774	4.611e-5	-7.655e-6
0.780	4.726e-5	-7.663e-6
0.786	4.886e-5	-7.671e-6
0.792	4.992e-5	-7.673e-6
0.798	5.177e-5	-7.660e-6
0.804	5.318e-5	-7.658e-6
0.810	5.461e-5	-7.666e-6
0.816	5.664e-5	-7.668e-6
0.822	5.517e-5	-7.656e-6
0.828	5.659e-5	-7.650e-6
0.834	5.800e-5	-7.659e-6
0.840	5.946e-5	-7.665e-6
0.846	6.106e-5	-7.665e-6
0.852	6.290e-5	-7.666e-6
0.858	6.473e-5	-7.676e-6
0.864	6.659e-5	-7.668e-6
0.870	6.870e-5	-7.677e-6
0.876	7.098e-5	-7.636e-6
0.882	7.324e-5	-7.638e-6
0.888	7.568e-5	-7.640e-6
0.894	7.722e-5	-7.648e-6
0.900	7.284e-5	-7.678e-6
0.894	3.991e-5	-7.669e-6
0.888	3.195e-5	-7.658e-6
0.882	2.632e-5	-7.678e-6
0.876	2.233e-5	-7.675e-6
0.870	1.971e-5	-7.677e-6
0.864	1.799e-5	-7.685e-6
0.858	1.681e-5	-7.668e-6
0.852	1.516e-5	-7.667e-6
0.846	1.297e-5	-7.666e-6
0.840	1.154e-5	-7.667e-6
0.834	1.042e-5	-7.676e-6
0.828	9.458e-6	-7.672e-6
0.822	8.793e-6	-7.663e-6
0.816	8.353e-6	-7.677e-6
0.810	8.076e-6	-7.671e-6
0.804	7.963e-6	-7.680e-6
0.798	7.564e-6	-7.671e-6
0.792	7.079e-6	-7.668e-6
0.786	6.793e-6	-7.682e-6
0.780	6.291e-6	-7.668e-6
0.774	6.466e-6	-7.666e-6
0.768	3.372e-6	-7.664e-6
0.762	1.334e-6	-7.658e-6
0.756	-1.685e-6	-7.660e-6
0.750	-2.971e-6	-7.667e-6
0.744	-3.866e-6	-7.660e-6
0.738	-4.575e-6	-7.661e-6
0.732	-5.194e-6	-7.658e-6
0.726	-5.526e-6	-7.651e-6
0.720	-5.817e-6	-7.656e-6
0.714	-6.449e-6	-7.654e-6
0.708	-7.088e-6	-7.651e-6
0.702	-7.255e-6	-7.653e-6
0.696	-7.441e-6	-7.651e-6
0.690	-7.551e-6	-7.654e-6
0.684	-7.763e-6	-7.658e-6
0.678	-7.684e-6	-7.651e-6
0.672	-8.401e-6	-7.671e-6
0.666	-8.888e-6	-7.712e-6
0.660	-9.192e-6	-7.730e-6
0.654	-9.376e-6	-7.744e-6
0.648	-9.530e-6	-7.757e-6
0.642	-9.645e-6	-7.751e-6
0.636	-9.945e-6	-7.755e-6
0.630	-1.016e-5	-7.751e-6
0.624	-1.037e-5	-7.750e-6
0.618	-1.056e-5	-7.748e-6
0.612	-1.081e-5	-7.738e-6
0.606	-1.070e-5	-7.760e-6
0.600	-1.072e-5	-7.759e-6
0.594	-1.089e-5	-7.754e-6
0.588	-1.119e-5	-7.748e-6
0.582	-1.134e-5	-7.752e-6
0.576	-1.149e-5	-7.754e-6
0.570	-1.167e-5	-7.754e-6
0.564	-1.178e-5	-7.757e-6
0.558	-1.184e-5	-7.758e-6
0.552	-1.195e-5	-7.752e-6
0.546	-1.188e-5	-7.752e-6
0.540	-1.196e-5	-7.761e-6
0.534	-1.192e-5	-7.752e-6
0.528	-1.265e-5	-7.747e-6
0.522	-1.280e-5	-7.747e-6
0.516	-1.300e-5	-7.755e-6
0.510	-1.309e-5	-7.751e-6
0.504	-1.321e-5	-7.760e-6
0.498	-1.335e-5	-7.753e-6
0.492	-1.347e-5	-7.749e-6
0.486	-1.351e-5	-7.752e-6
0.480	-1.363e-5	-7.743e-6
0.474	-1.373e-5	-7.751e-6
0.468	-1.388e-5	-7.758e-6
0.462	-1.392e-5	-7.768e-6
0.456	-1.400e-5	-7.758e-6
0.450	-1.409e-5	-7.756e-6
0.444	-1.417e-5	-7.746e-6
0.438	-1.424e-5	-7.753e-6
0.432	-1.434e-5	-7.754e-6
0.426	-1.448e-5	-7.759e-6
0.420	-1.461e-5	-7.751e-6
0.414	-1.463e-5	-7.750e-6
0.408	-1.482e-5	-7.756e-6
0.402	-1.485e-5	-7.755e-6
0.396	-1.497e-5	-7.751e-6
0.390	-1.500e-5	-7.749e-6
0.384	-1.506e-5	-7.750e-6
0.378	-1.512e-5	-7.745e-6
0.372	-1.519e-5	-7.752e-6
0.366	-1.518e-5	-7.750e-6
0.360	-1.525e-5	-7.765e-6
0.354	-1.527e-5	-7.749e-6
0.348	-1.533e-5	-7.751e-6
0.342	-1.532e-5	-7.748e-6
0.336	-1.538e-5	-7.751e-6
0.330	-1.540e-5	-7.744e-6
0.324	-1.545e-5	-7.744e-6
0.318	-1.548e-5	-7.752e-6
0.312	-1.554e-5	-7.753e-6
0.306	-1.563e-5	-7.765e-6
0.300	-1.571e-5	-7.755e-6
0.294	-1.574e-5	-7.753e-6
0.288	-1.583e-5	-7.758e-6
0.282	-1.593e-5	-7.755e-6
0.276	-1.603e-5	-7.732e-6
0.270	-1.609e-5	-7.756e-6
0.264	-1.616e-5	-7.757e-6
0.258	-1.627e-5	-7.757e-6
0.252	-1.640e-5	-7.748e-6
0.246	-1.645e-5	-7.754e-6
0.240	-1.655e-5	-7.756e-6
0.234	-1.667e-5	-7.748e-6
0.228	-1.680e-5	-7.748e-6
0.222	-1.687e-5	-7.743e-6
0.216	-1.697e-5	-7.736e-6
0.210	-1.709e-5	-7.741e-6
0.204	-1.733e-5	-7.741e-6
0.198	-1.737e-5	-7.763e-6
0.192	-1.745e-5	-7.750e-6
0.186	-1.753e-5	-7.750e-6
0.180	-1.769e-5	-7.765e-6
0.174	-1.779e-5	-7.755e-6
0.168	-1.792e-5	-7.748e-6
0.162	-1.805e-5	-7.749e-6
0.156	-1.820e-5	-7.745e-6
0.150	-1.832e-5	-7.752e-6
0.144	-1.845e-5	-7.742e-6
0.138	-1.859e-5	-7.737e-6
0.132	-1.876e-5	-7.748e-6
0.126	-1.884e-5	-7.752e-6
0.120	-1.897e-5	-7.747e-6
0.114	-1.910e-5	-7.755e-6
0.108	-1.928e-5	-7.755e-6
0.102	-1.945e-5	-7.770e-6
0.096	-1.958e-5	-7.750e-6
0.090	-1.972e-5	-7.763e-6
0.084	-1.988e-5	-7.755e-6
0.078	-2.000e-5	-7.767e-6
0.072	-2.012e-5	-7.751e-6
0.066	-2.025e-5	-7.753e-6
0.060	-2.042e-5	-7.745e-6
0.054	-2.053e-5	-7.751e-6
0.048	-2.065e-5	-7.751e-6
0.042	-2.080e-5	-7.753e-6
0.036	-2.098e-5	-7.743e-6
0.030	-2.107e-5	-7.747e-6
0.024	-2.114e-5	-7.741e-6
0.018	-2.126e-5	-7.741e-6
0.012	-2.139e-5	-7.727e-6
0.006	-2.145e-5	-7.734e-6
0.000	-2.168e-5	-7.743e-6
-0.006	-2.168e-5	-7.745e-6
-0.012	-2.175e-5	-7.750e-6
-0.018	-2.178e-5	-7.747e-6
-0.024	-2.182e-5	-7.756e-6
-0.030	-2.183e-5	-7.751e-6
-0.036	-2.187e-5	-7.757e-6
-0.042	-2.187e-5	-7.762e-6
-0.048	-2.187e-5	-7.750e-6
-0.054	-2.188e-5	-7.759e-6
-0.060	-2.188e-5	-7.763e-6
-0.066	-2.183e-5	-7.762e-6
-0.072	-2.182e-5	-7.763e-6
-0.078	-2.179e-5	-7.765e-6
-0.084	-2.180e-5	-7.768e-6
-0.090	-2.180e-5	-7.755e-6
-0.096	-2.179e-5	-7.755e-6
-0.102	-2.178e-5	-7.751e-6
-0.108	-2.186e-5	-7.751e-6
-0.114	-2.191e-5	-7.756e-6
-0.120	-2.199e-5	-7.747e-6
-0.126	-2.213e-5	-7.751e-6
-0.132	-2.231e-5	-7.750e-6
-0.138	-2.248e-5	-7.742e-6
-0.144	-2.274e-5	-7.747e-6
-0.150	-2.306e-5	-7.752e-6
-0.156	-2.345e-5	-7.741e-6
-0.162	-2.386e-5	-7.743e-6
-0.168	-2.440e-5	-7.742e-6
-0.174	-2.498e-5	-7.749e-6
-0.180	-2.568e-5	-7.746e-6
-0.186	-2.643e-5	-7.740e-6
-0.192	-2.727e-5	-7.746e-6
-0.198	-2.821e-5	-7.754e-6
-0.204	-2.929e-5	-7.767e-6
-0.210	-3.041e-5	-7.762e-6
-0.216	-3.165e-5	-7.759e-6
-0.222	-3.301e-5	-7.756e-6
-0.228	-3.449e-5	-7.760e-6
-0.234	-3.597e-5	-7.747e-6
-0.240	-3.760e-5	-7.742e-6
-0.246	-3.934e-5	-7.751e-6
-0.252	-4.117e-5	-7.745e-6
-0.258	-4.301e-5	-7.739e-6
-0.264	-4.498e-5	-7.734e-6
-0.270	-4.698e-5	-7.724e-6
-0.276	-4.900e-5	-7.759e-6
-0.282	-5.101e-5	-7.744e-6
-0.288	-5.309e-5	-7.756e-6
-0.294	-5.515e-5	-7.751e-6
-0.300	-5.723e-5	-7.744e-6
-0.306	-5.930e-5	-7.752e-6
-0.312	-6.131e-5	-7.760e-6
-0.318	-6.328e-5	-7.748e-6
-0.324	-6.520e-5	-7.731e-6
-0.330	-6.707e-5	-7.733e-6
-0.336	-6.888e-5	-7.746e-6
-0.342	-7.071e-5	-7.740e-6
-0.348	-7.251e-5	-7.742e-6
-0.354	-7.423e-5	-7.746e-6
-0.360	-7.596e-5	-7.740e-6
-0.366	-7.766e-5	-7.732e-6
-0.372	-7.943e-5	-7.739e-6
-0.378	-8.113e-5	-7.736e-6
-0.384	-8.281e-5	-7.731e-6
-0.390	-8.456e-5	-7.726e-6
-0.396	-8.632e-5	-7.719e-6
-0.402	-8.801e-5	-7.767e-6
-0.408	-8.972e-5	-7.762e-6
-0.414	-9.149e-5	-7.769e-6
-0.420	-9.325e-5	-7.761e-6
-0.426	-9.493e-5	-7.758e-6
-0.432	-9.665e-5	-7.758e-6
-0.438	-9.836e-5	-7.756e-6
-0.444	-1.001e-4	-7.752e-6
-0.450	-1.018e-4	-7.752e-6
-0.456	-1.034e-4	-7.750e-6
-0.462	-1.051e-4	-7.738e-6
-0.468	-1.067e-4	-7.739e-6
-0.474	-1.083e-4	-7.758e-6
-0.480	-1.099e-4	-7.754e-6
-0.486	-1.114e-4	-7.747e-6
-0.492	-1.130e-4	-7.754e-6
-0.498	-1.144e-4	-7.747e-6
-0.504	-1.159e-4	-7.735e-6
-0.510	-1.173e-4	-7.749e-6
-0.516	-1.186e-4	-7.731e-6
-0.522	-1.199e-4	-7.741e-6
-0.528	-1.211e-4	-7.734e-6
-0.534	-1.223e-4	-7.738e-6
-0.540	-1.234e-4	-7.738e-6
-0.546	-1.245e-4	-7.742e-6
-0.552	-1.255e-4	-7.727e-6
-0.558	-1.265e-4	-7.744e-6
-0.564	-1.275e-4	-7.769e-6
-0.570	-1.284e-4	-7.764e-6
-0.576	-1.292e-4	-7.763e-6
-0.582	-1.301e-4	-7.764e-6
-0.588	-1.309e-4	-7.754e-6
-0.594	-1.316e-4	-7.752e-6
-0.600	-1.291e-4	-7.743e-6
-0.594	-1.111e-4	-7.732e-6
-0.588	-1.001e-4	-7.737e-6
-0.582	-9.118e-5	-7.757e-6
-0.576	-8.364e-5	-7.717e-6
-0.570	-7.707e-5	-7.716e-6
-0.564	-7.121e-5	-7.726e-6
-0.558	-6.597e-5	-7.715e-6
-0.552	-6.132e-5	-7.729e-6
-0.546	-5.696e-5	-7.723e-6
-0.540	-5.289e-5	-7.728e-6
-0.534	-4.919e-5	-7.752e-6
-0.528	-4.577e-5	-7.720e-6
-0.522	-4.243e-5	-7.720e-6
-0.516	-3.933e-5	-7.732e-6
-0.510	-3.643e-5	-7.728e-6
-0.504	-3.374e-5	-7.733e-6
-0.498	-3.110e-5	-7.750e-6
-0.492	-2.857e-5	-7.747e-6
-0.486	-2.622e-5	-7.732e-6
-0.480	-2.407e-5	-7.747e-6
-0.474	-2.196e-5	-7.742e-6
-0.468	-1.987e-5	-7.754e-6
-0.462	-1.789e-5	-7.744e-6
-0.456	-1.602e-5	-7.751e-6
-0.450	-1.418e-5	-7.756e-6
-0.444	-1.238e-5	-7.759e-6
-0.438	-1.069e-5	-7.753e-6
-0.432	-9.067e-6	-7.731e-6
-0.426	-7.539e-6	-7.662e-6
-0.420	-5.969e-6	-7.660e-6
-0.414	-4.417e-6	-7.680e-6
-0.408	-2.997e-6	-7.664e-6
-0.402	-1.644e-6	-7.669e-6
-0.396	-2.803e-7	-7.673e-6
-0.390	1.047e-6	-7.673e-6
-0.384	2.191e-6	-7.673e-6
-0.378	3.406e-6	-7.677e-6
-0.372	4.652e-6	-7.685e-6
-0.366	5.763e-6	-7.677e-6
-0.360	6.845e-6	-7.688e-6
-0.354	7.954e-6	-7.691e-6
-0.348	9.021e-6	-7.694e-6
-0.342	1.008e-5	-7.691e-6
-0.336	1.106e-5	-7.682e-6
-0.330	1.207e-5	-7.680e-6
-0.324	1.309e-5	-7.684e-6
-0.318	1.395e-5	-7.695e-6
-0.312	1.471e-5	-7.687e-6
-0.306	1.546e-5	-7.678e-6
-0.300	1.629e-5	-7.675e-6
-0.294	1.705e-5	-7.674e-6
-0.288	1.781e-5	-7.678e-6
-0.282	1.854e-5	-7.683e-6
-0.276	1.930e-5	-7.691e-6
-0.270	1.997e-5	-7.689e-6
-0.264	2.052e-5	-7.688e-6
-0.258	2.113e-5	-7.686e-6
-0.252	2.178e-5	-7.698e-6
-0.246	2.240e-5	-7.694e-6
-0.240	2.297e-5	-7.692e-6
-0.234	2.350e-5	-7.698e-6
-0.228	2.396e-5	-7.697e-6
-0.222	2.442e-5	-7.697e-6
-0.216	2.479e-5	-7.713e-6
-0.210	2.520e-5	-7.696e-6
-0.204	2.566e-5	-7.702e-6
-0.198	2.601e-5	-7.699e-6
-0.192	2.637e-5	-7.704e-6
-0.186	2.671e-5	-7.698e-6
-0.180	2.709e-5	-7.695e-6
-0.174	2.743e-5	-7.702e-6
-0.168	2.769e-5	-7.694e-6
-0.162	2.799e-5	-7.705e-6
-0.156	2.826e-5	-7.699e-6
-0.150	2.853e-5	-7.704e-6
-0.144	2.871e-5	-7.709e-6
-0.138	2.889e-5	-7.712e-6
-0.132	2.904e-5	-7.699e-6
-0.126	2.926e-5	-7.705e-6
-0.120	2.938e-5	-7.706e-6
-0.114	2.948e-5	-7.710e-6
-0.108	2.964e-5	-7.718e-6
-0.102	2.978e-5	-7.714e-6
-0.096	2.991e-5	-7.708e-6
-0.090	3.012e-5	-7.706e-6
-0.084	3.035e-5	-7.688e-6
-0.078	3.055e-5	-7.679e-6
-0.072	3.071e-5	-7.688e-6
-0.066	3.088e-5	-7.686e-6
-0.060	3.102e-5	-7.681e-6
-0.054	3.115e-5	-7.675e-6
-0.048	3.130e-5	-7.682e-6
-0.042	3.148e-5	-7.677e-6
-0.036	3.168e-5	-7.675e-6
-0.030	3.186e-5	-7.681e-6
-0.024	3.202e-5	-7.684e-6
-0.018	3.220e-5	-7.682e-6
-0.012	3.244e-5	-7.684e-6
-0.006	3.275e-5	-7.692e-6
-0.000	3.327e-5	-7.677e-6
0.006	3.359e-5	-7.678e-6
0.012	3.398e-5	-7.677e-6
0.018	3.447e-5	-7.680e-6
0.024	3.496e-5	-7.682e-6
0.030	3.553e-5	-7.680e-6
0.036	3.620e-5	-7.676e-6
0.042	3.696e-5	-7.688e-6
0.048	3.772e-5	-7.690e-6
0.054	3.861e-5	-7.687e-6
0.060	3.958e-5	-7.690e-6
0.066	4.062e-5	-7.678e-6
0.072	4.170e-5	-7.682e-6
0.078	4.274e-5	-7.694e-6
0.084	4.388e-5	-7.696e-6
0.090	4.507e-5	-7.703e-6
0.096	4.632e-5	-7.690e-6
0.102	4.763e-5	-7.693e-6
0.108	4.895e-5	-7.703e-6
0.114	5.044e-5	-7.689e-6
0.120	5.178e-5	-7.682e-6
0.126	5.305e-5	-7.691e-6
0.132	5.416e-5	-7.694e-6
0.138	5.514e-5	-7.693e-6
0.144	5.576e-5	-7.692e-6
0.150	5.604e-5	-7.689e-6
0.156	5.591e-5	-7.697e-6
0.162	5.520e-5	-7.693e-6
0.168	5.400e-5	-7.703e-6
0.174	5.246e-5	-7.693e-6
0.180	5.058e-5	-7.696e-6
0.186	4.863e-5	-7.706e-6
0.192	4.664e-5	-7.700e-6
0.198	4.481e-5	-7.698e-6
0.204	4.327e-5	-7.697e-6
0.210	4.198e-5	-7.677e-6
0.216	4.079e-5	-7.683e-6
0.222	3.993e-5	-7.685e-6
0.228	3.926e-5	-7.689e-6
0.234	3.860e-5	-7.700e-6
0.240	3.807e-5	-7.687e-6
0.246	3.769e-5	-7.688e-6
0.252	3.733e-5	-7.687e-6
0.258	3.697e-5	-7.681e-6
0.264	3.666e-5	-7.681e-6
0.270	3.639e-5	-7.673e-6
0.276	3.620e-5	-7.674e-6
0.282	3.596e-5	-7.689e-6
0.288	3.569e-5	-7.685e-6
0.294	3.553e-5	-7.680e-6
0.300	3.539e-5	-7.672e-6
0.306	3.523e-5	-7.685e-6
0.312	3.512e-5	-7.682e-6
0.318	3.498e-5	-7.688e-6
0.324	3.492e-5	-7.690e-6
0.330	3.477e-5	-7.689e-6
0.336	3.455e-5	-7.680e-6
0.342	3.440e-5	-7.689e-6
0.348	3.427e-5	-7.688e-6
0.354	3.409e-5	-7.688e-6
0.360	3.397e-5	-7.686e-6
0.366	3.387e-5	-7.680e-6
0.372	3.378e-5	-7.685e-6
0.378	3.362e-5	-7.682e-6
0.384	3.345e-5	-7.677e-6
0.390	3.336e-5	-7.676e-6
0.396	3.329e-5	-7.683e-6
0.402	3.317e-5	-7.684e-6
0.408	3.305e-5	-7.684e-6
0.414	3.305e-5	-7.681e-6
0.420	3.297e-5	-7.684e-6
0.426	3.283e-5	-7.679e-6
0.432	3.271e-5	-7.683e-6
0.438	3.266e-5	-7.688e-6
0.444	3.262e-5	-7.674e-6
0.450	3.255e-5	-7.673e-6
0.456	3.246e-5	-7.672e-6
0.462	3.248e-5	-7.675e-6
0.468	3.247e-5	-7.666e-6
0.474	3.246e-5	-7.675e-6
0.480	3.245e-5	-7.672e-6
0.486	3.248e-5	-7.668e-6
0.492	3.254e-5	-7.673e-6
0.498	3.258e-5	-7.673e-6
0.504	3.262e-5	-7.676e-6
0.510	3.275e-5	-7.662e-6
0.516	3.286e-5	-7.672e-6
0.522	3.291e-5	-7.668e-6
0.528	3.298e-5	-7.675e-6
0.534	3.313e-5	-7.675e-6
0.540	3.333e-5	-7.681e-6
0.546	3.357e-5	-7.674e-6
0.552	3.379e-5	-7.678e-6
0.558	3.410e-5	-7.684e-6
0.564	3.448e-5	-7.686e-6
0.570	3.475e-5	-7.687e-6
0.576	3.506e-5	-7.679e-6
0.582	3.542e-5	-7.692e-6
0.588	3.589e-5	-7.678e-6
0.594	3.636e-5	-7.680e-6
0.600	3.681e-5	-7.684e-6
0.606	3.739e-5	-7.686e-6
0.612	3.800e-5	-7.686e-6
0.618	3.866e-5	-7.683e-6
0.624	3.917e-5	-7.686e-6
0.630	3.982e-5	-7.680e-6
0.636	4.049e-5	-7.680e-6
0.642	4.113e-5	-7.680e-6
0.648	4.172e-5	-7.680e-6
0.654	4.235e-5	-7.693e-6
0.660	4.295e-5	-7.690e-6
0.666	4.353e-5	-7.684e-6
0.672	4.403e-5	-7.700e-6
0.678	4.464e-5	-7.697e-6
0.684	4.525e-5	-7.694e-6
0.690	4.570e-5	-7.690e-6
0.696	4.613e-5	-7.691e-6
0.702	4.668e-5	-7.694e-6
0.708	4.727e-5	-7.696e-6
0.714	4.779e-5	-7.696e-6
0.720	4.831e-5	-7.690e-6
0.726	4.885e-5	-7.699e-6
0.732	4.952e-5	-7.715e-6
0.738	5.010e-5	-7.700e-6
0.744	5.062e-5	-7.702e-6
0.750	5.127e-5	-7.696e-6
0.756	5.194e-5	-7.692e-6
0.762	5.255e-5	-7.694e-6
0.768	5.322e-5	-7.702e-6
0.774	5.391e-5	-7.694e-6
0.780	5.468e-5	-7.696e-6
0.786	5.539e-5	-7.686e-6
0.792	5.615e-5	-7.688e-6
0.798	5.700e-5	-7.697e-6
0.804	5.789e-5	-7.699e-6
0.810	5.875e-5	-7.707e-6
0.816	5.973e-5	-7.706e-6
0.822	6.076e-5	-7.696e-6
0.828	6.173e-5	-7.690e-6
0.834	6.269e-5	-7.698e-6
0.840	6.364e-5	-7.700e-6
0.846	6.474e-5	-7.709e-6
0.852	6.598e-5	-7.694e-6
0.858	6.723e-5	-7.701e-6
0.864	6.852e-5	-7.712e-6
0.870	7.010e-5	-7.685e-6
0.876	7.173e-5	-7.673e-6
0.882	7.347e-5	-7.678e-6
0.888	7.538e-5	-7.674e-6
0.894	7.752e-5	-7.669e-6
0.900	7.292e-5	-7.704e-6
0.894	4.069e-5	-7.708e-6
0.888	3.302e-5	-7.696e-6
0.882	2.745e-5	-7.714e-6
0.876	2.312e-5	-7.713e-6
0.870	1.964e-5	-7.710e-6
0.864	1.686e-5	-7.705e-6
0.858	1.461e-5	-7.693e-6
0.852	1.279e-5	-7.703e-6
0.846	1.128e-5	-7.701e-6
0.840	9.983e-6	-7.707e-6
0.834	8.719e-6	-7.706e-6
0.828	7.733e-6	-7.693e-6
0.822	7.225e-6	-7.699e-6
0.816	6.700e-6	-7.707e-6
0.810	6.200e-6	-7.700e-6
0.804	5.565e-6	-7.705e-6
0.798	5.310e-6	-7.702e-6
0.792	5.156e-6	-7.698e-6
0.786	4.881e-6	-7.700e-6
0.780	4.748e-6	-7.706e-6
0.774	4.690e-6	-7.696e-6
0.768	4.366e-6	-7.700e-6
0.762	4.172e-6	-7.707e-6
0.756	3.967e-6	-7.697e-6
0.750	3.824e-6	-7.707e-6
0.744	3.563e-6	-7.704e-6
0.738	3.388e-6	-7.698e-6
0.732	3.311e-6	-7.702e-6
0.726	3.205e-6	-7.696e-6
0.720	3.114e-6	-7.700e-6
0.714	3.147e-6	-7.693e-6
0.708	2.963e-6	-7.694e-6
0.702	2.901e-6	-7.701e-6
0.696	2.777e-6	-7.694e-6
0.690	2.923e-6	-7.695e-6
0.684	2.677e-6	-7.700e-6
0.678	1.997e-6	-7.687e-6
0.672	6.202e-7	-7.693e-6
0.666	-1.964e-6	-7.697e-6
0.660	-5.142e-6	-7.687e-6
0.654	-6.523e-6	-7.701e-6
0.648	-7.397e-6	-7.678e-6
0.642	-7.997e-6	-7.701e-6
0.636	-8.423e-6	-7.689e-6
0.630	-8.718e-6	-7.722e-6
0.624	-9.029e-6	-7.750e-6
0.618	-9.301e-6	-7.769e-6
0.612	-9.651e-6	-7.775e-6
0.606	-9.800e-6	-7.792e-6
0.600	-1.001e-5	-7.781e-6
0.594	-1.023e-5	-7.777e-6
0.588	-1.046e-5	-7.776e-6
0.582	-1.061e-5	-7.771e-6
0.576	-1.082e-5	-7.774e-6
0.570	-1.099e-5	-7.778e-6
0.564	-1.117e-5	-7.783e-6
0.558	-1.122e-5	-7.776e-6
0.552	-1.123e-5	-7.772e-6
0.546	-1.129e-5	-7.775e-6
0.540	-1.141e-5	-7.778e-6
0.534	-1.158e-5	-7.772e-6
0.528	-1.202e-5	-7.770e-6
0.522	-1.227e-5	-7.772e-6
0.516	-1.253e-5	-7.771e-6
0.510	-1.265e-5	-7.772e-6
0.504	-1.284e-5	-7.774e-6
0.498	-1.302e-5	-7.777e-6
0.492	-1.325e-5	-7.780e-6
0.486	-1.335e-5	-7.775e-6
0.480	-1.352e-5	-7.772e-6
0.474	-1.369e-5	-7.781e-6
0.468	-1.389e-5	-7.778e-6
0.462	-1.399e-5	-7.787e-6
0.456	-1.415e-5	-7.781e-6
0.450	-1.431e-5	-7.780e-6
0.444	-1.447e-5	-7.777e-6
0.438	-1.456e-5	-7.776e-6
0.432	-1.471e-5	-7.769e-6
0.426	-1.487e-5	-7.770e-6
0.420	-1.506e-5	-7.768e-6
0.414	-1.518e-5	-7.779e-6
0.408	-1.542e-5	-7.769e-6
0.402	-1.551e-5	-7.776e-6
0.396	-1.571e-5	-7.766e-6
0.390	-1.579e-5	-7.765e-6
0.384	-1.591e-5	-7.769e-6
0.378	-1.603e-5	-7.768e-6
0.372	-1.615e-5	-7.770e-6
0.366	-1.621e-5	-7.762e-6
0.360	-1.630e-5	-7.768e-6
0.354	-1.635e-5	-7.766e-6
0.348	-1.643e-5	-7.772e-6
0.342	-1.640e-5	-7.779e-6
0.336	-1.641e-5	-7.773e-6
0.330	-1.639e-5	-7.764e-6
0.324	-1.642e-5	-7.762e-6
0.318	-1.637e-5	-7.761e-6
0.312	-1.638e-5	-7.769e-6
0.306	-1.640e-5	-7.765e-6
0.300	-1.645e-5	-7.765e-6
0.294	-1.640e-5	-7.766e-6
0.288	-1.642e-5	-7.770e-6
0.282	-1.645e-5	-7.777e-6
0.276	-1.650e-5	-7.765e-6
0.270	-1.657e-5	-7.765e-6
0.264	-1.663e-5	-7.766e-6
0.258	-1.672e-5	-7.769e-6
0.252	-1.683e-5	-7.767e-6
0.246	-1.686e-5	-7.769e-6
0.240	-1.695e-5	-7.772e-6
0.234	-1.704e-5	-7.769e-6
0.228	-1.716e-5	-7.768e-6
0.222	-1.723e-5	-7.758e-6
0.216	-1.733e-5	-7.763e-6
0.210	-1.744e-5	-7.764e-6
0.204	-1.768e-5	-7.768e-6
0.198	-1.772e-5	-7.762e-6
0.192	-1.785e-5	-7.764e-6
0.186	-1.797e-5	-7.764e-6
0.180	-1.813e-5	-7.771e-6
0.174	-1.820e-5	-7.765e-6
0.168	-1.833e-5	-7.762e-6
0.162	-1.845e-5	-7.768e-6
0.156	-1.862e-5	-7.769e-6
0.150	-1.872e-5	-7.761e-6
0.144	-1.888e-5	-7.772e-6
0.138	-1.902e-5	-7.775e-6
0.132	-1.919e-5	-7.781e-6
0.126	-1.929e-5	-7.786e-6
0.120	-1.945e-5	-7.785e-6
0.114	-1.960e-5	-7.777e-6
0.108	-1.977e-5	-7.785e-6
0.102	-1.993e-5	-7.771e-6
0.096	-2.005e-5	-7.772e-6
0.090	-2.019e-5	-7.774e-6
0.084	-2.037e-5	-7.779e-6
0.078	-2.047e-5	-7.771e-6
0.072	-2.059e-5	-7.779e-6
0.066	-2.074e-5	-7.768e-6
0.060	-2.090e-5	-7.768e-6
0.054	-2.100e-5	-7.757e-6
0.048	-2.112e-5	-7.772e-6
0.042	-2.123e-5	-7.764e-6
0.036	-2.138e-5	-7.766e-6
0.030	-2.144e-5	-7.762e-6
0.024	-2.150e-5	-7.761e-6
0.018	-2.159e-5	-7.763e-6
0.012	-2.169e-5	-7.760e-6
0.006	-2.172e-5	-7.763e-6
0.000	-2.193e-5	-7.767e-6
-0.006	-2.188e-5	-7.768e-6
-0.012	-2.193e-5	-7.769e-6
-0.018	-2.191e-5	-7.771e-6
-0.024	-2.189e-5	-7.768e-6
-0.030	-2.188e-5	-7.776e-6
-0.036	-2.187e-5	-7.776e-6
-0.042	-2.178e-5	-7.771e-6
-0.048	-2.173e-5	-7.766e-6
-0.054	-2.166e-5	-7.760e-6
-0.060	-2.161e-5	-7.782e-6
-0.066	-2.152e-5	-7.771e-6
-0.072	-2.141e-5	-7.771e-6
-0.078	-2.131e-5	-7.769e-6
-0.084	-2.124e-5	-7.770e-6
-0.090	-2.112e-5	-7.768e-6
-0.096	-2.102e-5	-7.769e-6
-0.102	-2.091e-5	-7.773e-6
-0.108	-2.086e-5	-7.778e-6
-0.114	-2.080e-5	-7.768e-6
-0.120	-2.074e-5	-7.768e-6
-0.126	-2.072e-5	-7.776e-6
-0.132	-2.077e-5	-7.771e-6
-0.138	-2.078e-5	-7.772e-6
-0.144	-2.084e-5	-7.769e-6
-0.150	-2.095e-5	-7.769e-6
-0.156	-2.113e-5	-7.770e-6
-0.162	-2.132e-5	-7.769e-6
-0.168	-2.157e-5	-7.768e-6
-0.174	-2.188e-5	-7.772e-6
-0.180	-2.229e-5	-7.771e-6
-0.186	-2.272e-5	-7.763e-6
-0.192	-2.319e-5	-7.769e-6
-0.198	-2.374e-5	-7.778e-6
-0.204	-2.440e-5	-7.770e-6
-0.210	-2.508e-5	-7.750e-6
-0.216	-2.581e-5	-7.780e-6
-0.222	-2.663e-5	-7.769e-6
-0.228	-2.753e-5	-7.759e-6
-0.234	-2.846e-5	-7.768e-6
-0.240	-2.946e-5	-7.776e-6
-0.246	-3.049e-5	-7.769e-6
-0.252	-3.163e-5	-7.770e-6
-0.258	-3.274e-5	-7.765e-6
-0.264	-3.389e-5	-7.769e-6
-0.270	-3.510e-5	-7.765e-6
-0.276	-3.637e-5	-7.750e-6
-0.282	-3.759e-5	-7.743e-6
-0.288	-3.883e-5	-7.756e-6
-0.294	-4.012e-5	-7.757e-6
-0.300	-4.147e-5	-7.751e-6
-0.306	-4.275e-5	-7.743e-6
-0.312	-4.409e-5	-7.737e-6
-0.318	-4.544e-5	-7.749e-6
-0.324	-4.681e-5	-7.751e-6
-0.330	-4.814e-5	-7.757e-6
-0.336	-4.944e-5	-7.787e-6
-0.342	-5.085e-5	-7.778e-6
-0.348	-5.229e-5	-7.763e-6
-0.354	-5.372e-5	-7.774e-6
-0.360	-5.520e-5	-7.768e-6
-0.366	-5.672e-5	-7.762e-6
-0.372	-5.831e-5	-7.771e-6
-0.378	-5.986e-5	-7.767e-6
-0.384	-6.145e-5	-7.757e-6
-0.390	-6.311e-5	-7.750e-6
-0.396	-6.478e-5	-7.757e-6
-0.402	-6.646e-5	-7.749e-6
-0.408	-6.816e-5	-7.760e-6
-0.414	-6.995e-5	-7.758e-6
-0.420	-7.173e-5	-7.759e-6
-0.426	-7.351e-5	-7.758e-6
-0.432	-7.526e-5	-7.747e-6
-0.438	-7.705e-5	-7.744e-6
-0.444	-7.886e-5	-7.743e-6
-0.450	-8.062e-5	-7.737e-6
-0.456	-8.240e-5	-7.736e-6
-0.462	-8.418e-5	-7.738e-6
-0.468	-8.600e-5	-7.727e-6
-0.474	-8.767e-5	-7.768e-6
-0.480	-8.938e-5	-7.777e-6
-0.486	-9.104e-5	-7.781e-6
-0.492	-9.274e-5	-7.772e-6
-0.498	-9.436e-5	-7.769e-6
-0.504	-9.596e-5	-7.769e-6
-0.510	-9.753e-5	-7.764e-6
-0.516	-9.907e-5	-7.767e-6
-0.522	-1.005e-4	-7.768e-6
-0.528	-1.019e-4	-7.763e-6
-0.534	-1.033e-4	-7.767e-6
-0.540	-1.047e-4	-7.757e-6
-0.546	-1.060e-4	-7.756e-6
-0.552	-1.072e-4	-7.759e-6
-0.558	-1.085e-4	-7.777e-6
-0.564	-1.097e-4	-7.768e-6
-0.570	-1.108e-4	-7.770e-6
-0.576	-1.119e-4	-7.763e-6
-0.582	-1.130e-4	-7.773e-6
-0.588	-1.141e-4	-7.764e-6
-0.594	-1.151e-4	-7.767e-6
-0.600	-1.128e-4	-7.754e-6
-0.594	-9.658e-5	-7.750e-6
-0.588	-8.692e-5	-7.729e-6
-0.582	-7.913e-5	-7.739e-6
-0.576	-7.262e-5	-7.738e-6
-0.570	-6.691e-5	-7.729e-6
-0.564	-6.185e-5	-7.738e-6
-0.558	-5.727e-5	-7.739e-6
-0.552	-5.315e-5	-7.752e-6
-0.546	-4.933e-5	-7.761e-6
-0.540	-4.581e-5	-7.732e-6
-0.534	-4.248e-5	-7.733e-6
-0.528	-3.942e-5	-7.748e-6
-0.522	-3.651e-5	-7.740e-6
-0.516	-3.378e-5	-7.761e-6
-0.510	-3.123e-5	-7.755e-6
-0.504	-2.882e-5	-7.762e-6
-0.498	-2.647e-5	-7.741e-6
-0.492	-2.426e-5	-7.756e-6
-0.486	-2.221e-5	-7.752e-6
-0.480	-2.023e-5	-7.761e-6
-0.474	-1.831e-5	-7.755e-6
-0.468	-1.645e-5	-7.750e-6
-0.462	-1.467e-5	-7.760e-6
-0.456	-1.296e-5	-7.761e-6
-0.450	-1.133e-5	-7.762e-6
-0.444	-9.775e-6	-7.771e-6
-0.438	-8.239e-6	-7.672e-6
-0.432	-6.759e-6	-7.677e-6
-0.426	-5.320e-6	-7.675e-6
-0.420	-3.913e-6	-7.680e-6
-0.414	-2.625e-6	-7.684e-6
-0.408	-1.303e-6	-7.679e-6
-0.402	-8.247e-8	-7.683e-6
-0.396	1.159e-6	-7.687e-6
-0.390	2.260e-6	-7.679e-6
-0.384	3.233e-6	-7.688e-6
-0.378	4.293e-6	-7.689e-6
-0.372	5.356e-6	-7.696e-6
-0.366	6.345e-6	-7.690e-6
-0.360	7.332e-6	-7.685e-6
-0.354	8.276e-6	-7.687e-6
-0.348	9.237e-6	-7.702e-6
-0.342	1.015e-5	-7.697e-6
-0.336	1.096e-5	-7.690e-6
-0.330	1.180e-5	-7.678e-6
-0.324	1.267e-5	-7.681e-6
-0.318	1.345e-5	-7.682e-6
-0.312	1.410e-5	-7.689e-6
-0.306	1.480e-5	-7.684e-6
-0.300	1.543e-5	-7.696e-6
-0.294	1.609e-5	-7.689e-6
-0.288	1.672e-5	-7.691e-6
-0.282	1.735e-5	-7.697e-6
-0.276	1.798e-5	-7.698e-6
-0.270	1.854e-5	-7.694e-6
-0.264	1.908e-5	-7.697e-6
-0.258	1.961e-5	-7.705e-6
-0.252	2.023e-5	-7.703e-6
-0.246	2.076e-5	-7.699e-6
-0.240	2.116e-5	-7.687e-6
-0.234	2.153e-5	-7.694e-6
-0.228	2.191e-5	-7.694e-6
-0.222	2.237e-5	-7.701e-6
-0.216	2.273e-5	-7.698e-6
-0.210	2.309e-5	-7.691e-6
-0.204	2.347e-5	-7.707e-6
-0.198	2.383e-5	-7.700e-6
-0.192	2.410e-5	-7.705e-6
-0.186	2.438e-5	-7.698e-6
-0.180	2.473e-5	-7.705e-6
-0.174	2.498e-5	-7.707e-6
-0.168	2.521e-5	-7.711e-6
-0.162	2.547e-5	-7.703e-6
-0.156	2.570e-5	-7.701e-6
-0.150	2.593e-5	-7.702e-6
-0.144	2.614e-5	-7.699e-6
-0.138	2.628e-5	-7.705e-6
-0.132	2.647e-5	-7.702e-6
-0.126	2.661e-5	-7.710e-6
-0.120	2.673e-5	-7.699e-6
-0.114	2.689e-5	-7.715e-6
-0.108	2.704e-5	-7.714e-6
-0.102	2.717e-5	-7.700e-6
-0.096	2.727e-5	-7.708e-6
-0.090	2.741e-5	-7.709e-6
-0.084	2.756e-5	-7.713e-6
-0.078	2.769e-5	-7.712e-6
-0.072	2.782e-5	-7.717e-6
-0.066	2.794e-5	-7.701e-6
-0.060	2.811e-5	-7.712e-6
-0.054	2.823e-5	-7.709e-6
-0.048	2.836e-5	-7.713e-6
-0.042	2.852e-5	-7.711e-6
-0.036	2.871e-5	-7.709e-6
-0.030	2.892e-5	-7.711e-6
-0.024	2.912e-5	-7.717e-6
-0.018	2.938e-5	-7.714e-6
-0.012	2.969e-5	-7.708e-6
-0.006	2.998e-5	-7.712e-6
-0.000	3.048e-5	-7.690e-6
0.006	3.081e-5	-7.678e-6
0.012	3.130e-5	-7.671e-6
0.018	3.178e-5	-7.677e-6
0.024	3.233e-5	-7.669e-6
0.030	3.294e-5	-7.674e-6
0.036	3.353e-5	-7.683e-6
0.042	3.416e-5	-7.688e-6
0.048	3.484e-5	-7.689e-6
0.054	3.563e-5	-7.678e-6
0.060	3.658e-5	-7.676e-6
0.066	3.759e-5	-7.687e-6
0.072	3.858e-5	-7.689e-6
0.078	3.961e-5	-7.697e-6
0.084	4.082e-5	-7.688e-6
0.090	4.211e-5	-7.693e-6
0.096	4.339e-5	-7.698e-6
0.102	4.478e-5	-7.707e-6
0.108	4.627e-5	-7.701e-6
0.114	4.769e-5	-7.701e-6
0.120	4.915e-5	-7.711e-6
0.126	5.063e-5	-7.696e-6
0.132	5.209e-5	-7.701e-6
0.138	5.344e-5	-7.700e-6
0.144	5.461e-5	-7.705e-6
0.150	5.557e-5	-7.700e-6
0.156	5.610e-5	-7.702e-6
0.162	5.610e-5	-7.696e-6
0.168	5.558e-5	-7.699e-6
0.174	5.456e-5	-7.700e-6
0.180	5.311e-5	-7.697e-6
0.186	5.122e-5	-7.698e-6
0.192	4.914e-5	-7.713e-6
0.198	4.698e-5	-7.709e-6
0.204	4.497e-5	-7.709e-6
0.210	4.329e-5	-7.690e-6
0.216	4.178e-5	-7.686e-6
0.222	4.050e-5	-7.681e-6
0.228	3.946e-5	-7.681e-6
0.234	3.857e-5	-7.695e-6
0.240	3.774e-5	-7.688e-6
0.246	3.719e-5	-7.681e-6
0.252	3.673e-5	-7.682e-6
0.258	3.635e-5	-7.680e-6
0.264	3.597e-5	-7.686e-6
0.270	3.567e-5	-7.684e-6
0.276	3.545e-5	-7.682e-6
0.282	3.523e-5	-7.689e-6
0.288	3.500e-5	-7.689e-6
0.294	3.485e-5	-7.684e-6
0.300	3.476e-5	-7.693e-6
0.306	3.457e-5	-7.688e-6
0.312	3.440e-5	-7.695e-6
0.318	3.428e-5	-7.687e-6
0.324	3.416e-5	-7.685e-6
0.330	3.395e-5	-7.684e-6
0.336	3.372e-5	-7.688e-6
0.342	3.361e-5	-7.688e-6
0.348	3.351e-5	-7.694e-6
0.354	3.337e-5	-7.699e-6
0.360	3.320e-5	-7.683e-6
0.366	3.308e-5	-7.687e-6
0.372	3.303e-5	-7.685e-6
0.378	3.291e-5	-7.688e-6
0.384	3.278e-5	-7.688e-6
0.390	3.267e-5	-7.694e-6
0.396	3.256e-5	-7.690e-6
0.402	3.236e-5	-7.686e-6
0.408	3.223e-5	-7.683e-6
0.414	3.226e-5	-7.684e-6
0.420	3.216e-5	-7.686e-6
0.426	3.205e-5	-7.680e-6
0.432	3.194e-5	-7.683e-6
0.438	3.188e-5	-7.679e-6
0.444	3.187e-5	-7.690e-6
0.450	3.181e-5	-7.691e-6
0.456	3.173e-5	-7.683e-6
0.462	3.176e-5	-7.679e-6
0.468	3.177e-5	-7.678e-6
0.474	3.169e-5	-7.680e-6
0.480	3.169e-5	-7.685e-6
0.486	3.177e-5	-7.686e-6
0.492	3.185e-5	-7.679e-6
0.498	3.184e-5	-7.682e-6
0.504	3.184e-5	-7.685e-6
0.510	3.197e-5	-7.684e-6
0.516	3.212e-5	-7.684e-6
0.522	3.223e-5	-7.679e-6
0.528	3.234e-5	-7.683e-6
0.534	3.256e-5	-7.688e-6
0.540	3.279e-5	-7.682e-6
0.546	3.296e-5	-7.687e-6
0.552	3.316e-5	-7.685e-6
0.558	3.349e-5	-7.688e-6
0.564	3.386e-5	-7.688e-6
0.570	3.414e-5	-7.686e-6
0.576	3.444e-5	-7.689e-6
0.582	3.489e-5	-7.688e-6
0.588	3.536e-5	-7.698e-6
0.594	3.574e-5	-7.689e-6
0.600	3.622e-5	-7.691e-6
0.606	3.682e-5	-7.690e-6
0.612	3.744e-5	-7.691e-6
0.618	3.803e-5	-7.692e-6
0.624	3.862e-5	-7.689e-6
0.630	3.927e-5	-7.693e-6
0.636	3.996e-5	-7.691e-6
0.642	4.051e-5	-7.699e-6
0.648	4.108e-5	-7.688e-6
0.654	4.169e-5	-7.697e-6
0.660	4.223e-5	-7.693e-6
0.666	4.275e-5	-7.697e-6
0.672	4.322e-5	-7.701e-6
0.678	4.372e-5	-7.686e-6
0.684	4.422e-5	-7.704e-6
0.690	4.466e-5	-7.704e-6
0.696	4.514e-5	-7.707e-6
0.702	4.569e-5	-7.702e-6
0.708	4.621e-5	-7.708e-6
0.714	4.663e-5	-7.712e-6
0.720	4.714e-5	-7.700e-6
0.726	4.770e-5	-7.704e-6
0.732	4.837e-5	-7.711e-6
0.738	4.882e-5	-7.701e-6
0.744	4.934e-5	-7.713e-6
0.750	4.995e-5	-7.703e-6
0.756	5.062e-5	-7.689e-6
0.762	5.122e-5	-7.687e-6
0.768	5.184e-5	-7.688e-6
0.774	5.254e-5	-7.694e-6
0.780	5.324e-5	-7.701e-6
0.786	5.387e-5	-7.695e-6
0.792	5.452e-5	-7.705e-6
0.798	5.526e-5	-7.697e-6
0.804	5.607e-5	-7.708e-6
0.810	5.683e-5	-7.699e-6
0.816	5.769e-5	-7.718e-6
0.822	5.865e-5	-7.694e-6
0.828	5.951e-5	-7.708e-6
0.834	6.034e-5	-7.702e-6
0.840	6.124e-5	-7.693e-6
0.846	6.222e-5	-7.703e-6
0.852	6.329e-5	-7.715e-6
0.858	6.438e-5	-7.713e-6
0.864	6.566e-5	-7.703e-6
0.870	6.699e-5	-7.711e-6
0.876	6.847e-5	-7.713e-6
0.882	6.999e-5	-7.689e-6
0.888	7.172e-5	-7.672e-6
0.894	7.361e-5	-7.686e-6
0.900	6.883e-5	-7.716e-6
0.894	3.731e-5	-7.704e-6
0.888	3.014e-5	-7.719e-6
0.882	2.486e-5	-7.722e-6
0.876	2.070e-5	-7.716e-6
0.870	1.734e-5	-7.709e-6
0.864	1.458e-5	-7.710e-6
0.858	1.227e-5	-7.704e-6
0.852	1.019e-5	-7.719e-6
0.846	8.370e-6	-7.713e-6
0.840	6.818e-6	-7.708e-6
0.834	5.376e-6	-7.709e-6
0.828	4.100e-6	-7.704e-6
0.822	2.995e-6	-7.704e-6
0.816	1.903e-6	-7.693e-6
0.810	1.000e-6	-7.712e-6
0.804	7.597e-8	-7.708e-6
0.798	-6.237e-7	-7.710e-6
0.792	-1.257e-6	-7.706e-6
0.786	-1.962e-6	-7.699e-6
0.780	-2.680e-6	-7.698e-6
0.774	-3.218e-6	-7.708e-6
0.768	-3.775e-6	-7.702e-6
0.762	-4.216e-6	-7.701e-6
0.756	-4.679e-6	-7.705e-6
0.750	-5.082e-6	-7.697e-6
0.744	-5.522e-6	-7.705e-6
0.738	-5.945e-6	-7.697e-6
0.732	-6.326e-6	-7.688e-6
0.726	-6.629e-6	-7.692e-6
0.720	-6.933e-6	-7.694e-6
0.714	-7.287e-6	-7.696e-6
0.708	-7.612e-6	-7.697e-6
0.702	-7.806e-6	-7.690e-6
0.696	-8.055e-6	-7.694e-6
0.690	-8.262e-6	-7.696e-6
0.684	-8.542e-6	-7.705e-6
0.678	-8.732e-6	-7.726e-6
0.672	-8.935e-6	-7.744e-6
0.666	-9.172e-6	-7.762e-6
0.660	-9.382e-6	-7.779e-6
0.654	-9.500e-6	-7.786e-6
0.648	-9.686e-6	-7.791e-6
0.642	-9.865e-6	-7.779e-6
0.636	-1.004e-5	-7.783e-6
0.630	-1.016e-5	-7.786e-6
0.624	-1.029e-5	-7.781e-6
0.618	-1.045e-5	-7.790e-6
0.612	-1.067e-5	-7.789e-6
0.606	-1.075e-5	-7.786e-6
0.600	-1.088e-5	-7.789e-6
0.594	-1.103e-5	-7.788e-6
0.588	-1.116e-5	-7.782e-6
0.582	-1.126e-5	-7.798e-6
0.576	-1.140e-5	-7.786e-6
0.570	-1.157e-5	-7.785e-6
0.564	-1.177e-5	-7.786e-6
0.558	-1.187e-5	-7.791e-6
0.552	-1.204e-5	-7.792e-6
0.546	-1.219e-5	-7.783e-6
0.540	-1.236e-5	-7.788e-6
0.534	-1.247e-5	-7.782e-6
0.528	-1.264e-5	-7.777e-6
0.522	-1.278e-5	-7.772e-6
0.516	-1.293e-5	-7.774e-6
0.510	-1.307e-5	-7.775e-6
0.504	-1.319e-5	-7.771e-6
0.498	-1.335e-5	-7.780e-6
0.492	-1.351e-5	-7.793e-6
0.486	-1.359e-5	-7.776e-6
0.480	-1.380e-5	-7.777e-6
0.474	-1.400e-5	-7.772e-6
0.468	-1.417e-5	-7.774e-6
0.462	-1.430e-5	-7.785e-6
0.456	-1.443e-5	-7.780e-6
0.450	-1.458e-5	-7.778e-6
0.444	-1.475e-5	-7.781e-6
0.438	-1.485e-5	-7.784e-6
0.432	-1.498e-5	-7.773e-6
0.426	-1.515e-5	-7.778e-6
0.420	-1.533e-5	-7.780e-6
0.414	-1.544e-5	-7.778e-6
0.408	-1.569e-5	-7.778e-6
0.402	-1.578e-5	-7.778e-6
0.396	-1.594e-5	-7.785e-6
0.390	-1.605e-5	-7.777e-6
0.384	-1.618e-5	-7.774e-6
0.378	-1.630e-5	-7.782e-6
0.372	-1.645e-5	-7.780e-6
0.366	-1.649e-5	-7.780e-6
0.360	-1.658e-5	-7.781e-6
0.354	-1.664e-5	-7.770e-6
0.348	-1.669e-5	-7.770e-6
0.342	-1.666e-5	-7.782e-6
0.336	-1.664e-5	-7.780e-6
0.330	-1.662e-5	-7.780e-6
0.324	-1.667e-5	-7.786e-6
0.318	-1.661e-5	-7.789e-6
0.312	-1.660e-5	-7.786e-6
0.306	-1.660e-5	-7.772e-6
0.300	-1.661e-5	-7.774e-6
0.294	-1.658e-5	-7.772e-6
0.288	-1.661e-5	-7.770e-6
0.282	-1.664e-5	-7.771e-6
0.276	-1.668e-5	-7.768e-6
0.270	-1.669e-5	-7.767e-6
0.264	-1.675e-5	-7.768e-6
0.258	-1.684e-5	-7.764e-6
0.252	-1.695e-5	-7.763e-6
0.246	-1.699e-5	-7.762e-6
0.240	-1.709e-5	-7.762e-6
0.234	-1.721e-5	-7.768e-6
0.228	-1.734e-5	-7.761e-6
0.222	-1.742e-5	-7.785e-6
0.216	-1.753e-5	-7.765e-6
0.210	-1.762e-5	-7.742e-6
0.204	-1.786e-5	-7.770e-6
0.198	-1.791e-5	-7.777e-6
0.192	-1.804e-5	-7.774e-6
0.186	-1.817e-5	-7.773e-6
0.180	-1.832e-5	-7.777e-6
0.174	-1.843e-5	-7.770e-6
0.168	-1.856e-5	-7.779e-6
0.162	-1.870e-5	-7.773e-6
0.156	-1.887e-5	-7.768e-6
0.150	-1.899e-5	-7.775e-6
0.144	-1.913e-5	-7.775e-6
0.138	-1.930e-5	-7.775e-6
0.132	-1.948e-5	-7.780e-6
0.126	-1.957e-5	-7.782e-6
0.120	-1.970e-5	-7.777e-6
0.114	-1.984e-5	-7.771e-6
0.108	-2.002e-5	-7.771e-6
0.102	-2.019e-5	-7.770e-6
0.096	-2.030e-5	-7.768e-6
0.090	-2.046e-5	-7.764e-6
0.084	-2.062e-5	-7.778e-6
0.078	-2.073e-5	-7.780e-6
0.072	-2.083e-5	-7.769e-6
0.066	-2.102e-5	-7.770e-6
0.060	-2.119e-5	-7.759e-6
0.054	-2.130e-5	-7.773e-6
0.048	-2.143e-5	-7.770e-6
0.042	-2.154e-5	-7.769e-6
0.036	-2.170e-5	-7.769e-6
0.030	-2.177e-5	-7.770e-6
0.024	-2.184e-5	-7.767e-6
0.018	-2.191e-5	-7.767e-6
0.012	-2.200e-5	-7.774e-6
0.006	-2.201e-5	-7.770e-6
0.000	-2.224e-5	-7.773e-6
-0.006	-2.220e-5	-7.779e-6
-0.012	-2.224e-5	-7.777e-6
-0.018	-2.222e-5	-7.781e-6
-0.024	-2.218e-5	-7.778e-6
-0.030	-2.216e-5	-7.779e-6
-0.036	-2.215e-5	-7.783e-6
-0.042	-2.209e-5	-7.765e-6
-0.048	-2.202e-5	-7.749e-6
-0.054	-2.193e-5	-7.760e-6
-0.060	-2.187e-5	-7.778e-6
-0.066	-2.176e-5	-7.769e-6
-0.072	-2.163e-5	-7.767e-6
-0.078	-2.152e-5	-7.768e-6
-0.084	-2.141e-5	-7.776e-6
-0.090	-2.126e-5	-7.767e-6
-0.096	-2.114e-5	-7.774e-6
-0.102	-2.102e-5	-7.773e-6
-0.108	-2.095e-5	-7.771e-6
-0.114	-2.080e-5	-7.775e-6
-0.120	-2.069e-5	-7.780e-6
-0.126	-2.059e-5	-7.774e-6
-0.132	-2.056e-5	-7.768e-6
-0.138	-2.048e-5	-7.767e-6
-0.144	-2.044e-5	-7.771e-6
-0.150	-2.043e-5	-7.784e-6
-0.156	-2.053e-5	-7.775e-6
-0.162	-2.059e-5	-7.783e-6
-0.168	-2.069e-5	-7.774e-6
-0.174	-2.085e-5	-7.783e-6
-0.180	-2.109e-5	-7.765e-6
-0.186	-2.133e-5	-7.778e-6
-0.192	-2.165e-5	-7.766e-6
-0.198	-2.206e-5	-7.775e-6
-0.204	-2.252e-5	-7.774e-6
-0.210	-2.300e-5	-7.768e-6
-0.216	-2.353e-5	-7.770e-6
-0.222	-2.411e-5	-7.778e-6
-0.228	-2.481e-5	-7.776e-6
-0.234	-2.545e-5	-7.777e-6
-0.240	-2.625e-5	-7.777e-6
-0.246	-2.706e-5	-7.768e-6
-0.252	-2.796e-5	-7.770e-6
-0.258	-2.886e-5	-7.780e-6
-0.264	-2.985e-5	-7.773e-6
-0.270	-3.082e-5	-7.781e-6
-0.276	-3.191e-5	-7.770e-6
-0.282	-3.297e-5	-7.775e-6
-0.288	-3.407e-5	-7.768e-6
-0.294	-3.521e-5	-7.763e-6
-0.300	-3.638e-5	-7.763e-6
-0.306	-3.756e-5	-7.764e-6
-0.312	-3.878e-5	-7.769e-6
-0.318	-4.002e-5	-7.769e-6
-0.324	-4.136e-5	-7.765e-6
-0.330	-4.262e-5	-7.764e-6
-0.336	-4.395e-5	-7.750e-6
-0.342	-4.536e-5	-7.752e-6
-0.348	-4.678e-5	-7.752e-6
-0.354	-4.820e-5	-7.779e-6
-0.360	-4.964e-5	-7.775e-6
-0.366	-5.118e-5	-7.777e-6
-0.372	-5.276e-5	-7.767e-6
-0.378	-5.434e-5	-7.769e-6
-0.384	-5.592e-5	-7.766e-6
-0.390	-5.761e-5	-7.764e-6
-0.396	-5.935e-5	-7.767e-6
-0.402	-6.106e-5	-7.765e-6
-0.408	-6.280e-5	-7.767e-6
-0.414	-6.459e-5	-7.767e-6
-0.420	-6.638e-5	-7.752e-6
-0.426	-6.815e-5	-7.764e-6
-0.432	-6.994e-5	-7.770e-6
-0.438	-7.174e-5	-7.757e-6
-0.444	-7.358e-5	-7.756e-6
-0.450	-7.533e-5	-7.749e-6
-0.456	-7.710e-5	-7.743e-6
-0.462	-7.889e-5	-7.764e-6
-0.468	-8.066e-5	-7.749e-6
-0.474	-8.238e-5	-7.746e-6
-0.480	-8.408e-5	-7.746e-6
-0.486	-8.578e-5	-7.745e-6
-0.492	-8.745e-5	-7.766e-6
-0.498	-8.903e-5	-7.795e-6
-0.504	-9.059e-5	-7.790e-6
-0.510	-9.214e-5	-7.790e-6
-0.516	-9.370e-5	-7.787e-6
-0.522	-9.515e-5	-7.777e-6
-0.528	-9.655e-5	-7.770e-6
-0.534	-9.792e-5	-7.789e-6
-0.540	-9.929e-5	-7.784e-6
-0.546	-1.006e-4	-7.773e-6
-0.552	-1.018e-4	-7.763e-6
-0.558	-1.030e-4	-7.771e-6
-0.564	-1.042e-4	-7.767e-6
-0.570	-1.053e-4	-7.762e-6
-0.576	-1.064e-4	-7.768e-6
-0.582	-1.075e-4	-7.781e-6
-0.588	-1.085e-4	-7.782e-6
-0.594	-1.095e-4	-7.780e-6
-0.599	-1.103e-4	-7.776e-6